AccelX,AccelY,AccelZ,GyroX,GyroY,GyroZ
-0.056030273,1.00402832,0.14831543,-0.001048263,0.039900625,0.013585856
-0.055908203,1.008178711,0.149902344,-0.004379044,0.036303381,0.026376055
-0.055541992,1.012939453,0.153320313,-0.003979351,0.040300319,0.035835473
-0.057250977,0.997802734,0.150024414,-0.007976288,0.032173213,0.037167786
-0.057861328,0.99230957,0.152832031,-0.00824275,0.022847026,0.040631798
-0.059326172,0.995605469,0.151733398,0.007345305,0.017517776,0.042230573
-0.055908203,1.011108398,0.145385742,0.018936423,0.015919002,0.034503161
-0.050415039,1.017944336,0.141357422,0.04331774,0.031373825,0.012386775
-0.054443359,1.009155273,0.142822266,0.055042089,0.059352386,0.003726744
-0.058837891,1.003295898,0.147094727,0.057973176,0.05229113,0.004526132
-0.054199219,1.002685547,0.142211914,0.062236576,0.030041513,-0.005066518
-0.052978516,1.008300781,0.147094727,0.065833819,0.042032325,-0.019588723
-0.057983398,1.005615234,0.1484375,0.059039026,0.05122528,-0.017057329
-0.059936523,1.003295898,0.151367188,0.038121721,0.014986383,-0.005732674
-0.051879883,1.003540039,0.146240234,0.016937954,0.014853152,-0.004533593
-0.042602539,0.99621582,0.141601563,-0.004645507,0.049626505,-0.017190561
-0.043701172,0.994995117,0.148925781,-0.019167712,0.064281942,-0.019988417
-0.049316406,0.994628906,0.141113281,-0.04474811,0.0436311,-0.01172808
-0.054321289,0.994262695,0.143798828,-0.043948723,0.023513182,0.008523069
-0.051757813,0.996337891,0.137329102,-0.040617942,0.018050701,0.017582793
-0.053100586,1.004882813,0.128540039,-0.017968631,0.01471992,0.026642518
-0.048950195,1.005371094,0.13269043,0.014140098,0.019915939,0.026642518
-0.041992188,1.000610352,0.130004883,0.04012019,0.022314101,0.013186162
-0.042480469,1.010986328,0.127563477,0.067565826,0.038568312,-0.008930224
-0.05480957,1.013305664,0.135009766,0.08848313,0.060551467,-0.00320128
-0.057373047,1.01171875,0.134277344,0.096210542,0.044430487,0.017582793
-0.062866211,1.011962891,0.143188477,0.093679149,0.014320227,0.027441905
-0.049804688,1.006225586,0.153564453,0.086218199,0.008058358,0.022512349
-0.040161133,1.00793457,0.151245117,0.04438359,0.031240594,-0.002934818
-0.041625977,1.00793457,0.147094727,0.007212074,0.057353917,-0.014126242
-0.047851563,1.014648438,0.149658203,-0.019167712,0.067479492,-0.014792398
-0.057495117,1.016479492,0.147949219,-0.026095737,0.068811804,-0.010129305
-0.059082031,1.013549805,0.146972656,-0.029426518,0.067213029,0.005858444
-0.059570313,1.014282227,0.143432617,-0.034356074,0.054689293,0.014385244
-0.048583984,1.011474609,0.143676758,-0.044215185,0.055355449,0.003460282
-0.04675293,1.011474609,0.137329102,-0.050876747,0.070943504,0.000395963
-0.048828125,1.000854492,0.142333984,-0.061668478,0.108647945,0.005725213
-0.058959961,0.999511719,0.138305664,-0.066331571,0.103984852,0.016250481
-0.063842773,0.990478516,0.134521484,-0.065665415,0.069211498,0.033703773
-0.065551758,0.990966797,0.131469727,-0.057938003,0.054289599,0.043163191
-0.050292969,0.991821289,0.136962891,-0.019567406,0.040167087,0.040765029
-0.040527344,1.001464844,0.129150391,0.023199822,0.037635694,0.005059057
-0.041870117,1.024536133,0.128295898,0.059172257,0.063482554,-0.034910316
-0.046142578,1.019775391,0.130371094,0.073561231,0.087330947,-0.04610174
-0.053588867,1.000244141,0.139770508,0.083420343,0.107182401,-0.056760239
-0.047241211,1.012939453,0.163818359,0.081022181,0.096124208,-0.062489182
-0.04296875,1.0390625,0.152832031,0.090081905,0.041366169,-0.102991479
-0.037353516,1.043579102,0.143432617,0.068365213,0.01578577,-0.141895002
-0.034667969,1.031860352,0.145263672,-0.010507681,0.045096643,-0.154685201
-0.04296875,1.036376953,0.150756836,-0.081519933,0.090395265,-0.13310174
-0.059936523,1.037719727,0.153320313,-0.121222842,0.068012417,-0.087003731
-0.057983398,1.023193359,0.157226563,-0.140408141,-0.004065685,-0.044636196
-0.0625,1.012451172,0.149414063,-0.141473991,-0.028979927,-0.025850591
-0.059204102,1.021362305,0.131469727,-0.113628662,-0.042303051,0.007723681
-0.055908203,1.023071289,0.139770508,-0.056872153,-0.047232606,0.019314799
-0.063476563,1.008544922,0.136962891,0.004147755,-0.02724792,0.030239761
-0.072265625,0.989990234,0.146240234,0.05197777,0.020448864,0.042363804
-0.075805664,0.97265625,0.173950195,0.095810849,0.032306444,0.039432717
-0.07409668,0.975830078,0.1796875,0.125654646,-0.030711933,0.010121844
-0.065429688,0.97668457,0.184082031,0.131783283,-0.0518957,0.000129501
-0.067016602,0.977783203,0.167236328,0.115129378,-0.016589421,-0.029181372
-0.060546875,0.969848633,0.192260742,0.080356025,0.037768925,-0.052896533
-0.054321289,0.976074219,0.178466797,0.028529072,0.095458052,-0.093265599
-0.052124023,0.973266602,0.183227539,-0.045947191,0.147018542,-0.139763302
-0.0625,0.981445313,0.16796875,-0.088581188,0.15541211,-0.151754114
-0.072021484,0.981567383,0.15625,-0.152265721,0.162739829,-0.138164527
-0.086425781,0.987304688,0.141845703,-0.177046732,0.154346261,-0.112051204
-0.085083008,0.998779297,0.150756836,-0.198097268,0.100121146,-0.058225783
-0.078125,1.013549805,0.154296875,-0.184907375,0.067612723,-0.040239565
-0.071044922,1.009155273,0.147216797,-0.141607222,0.02644427,-0.027582597
-0.061523438,0.991943359,0.139526367,-0.124686855,0.030974132,-0.02358566
-0.055053711,0.999023438,0.135986328,-0.099106456,0.107981789,-0.019855185
-0.044555664,1.022583008,0.152832031,-0.071660821,0.167669385,-0.035043547
-0.046875,1.045776367,0.158691406,-0.023431112,0.294771988,-0.072881219
-0.058227539,1.035766602,0.176879883,-0.004778738,0.349663259,-0.086204343
-0.067382813,1.021362305,0.186401367,-0.013838462,0.406552999,-0.098328386
-0.07434082,1.022338867,0.204956055,-0.048611816,0.374311039,-0.104856717
-0.083007813,1.000854492,0.184814453,-0.121089611,0.330611192,-0.066086426
-0.079956055,1.007324219,0.188232422,-0.150666947,0.347664791,-0.034377391
-0.096801758,1.023071289,0.187133789,-0.163190683,0.340736766,0.025443436
-0.139282227,1.224853516,-0.873901367,0.665507633,-0.468243327,0.115774218
-0.023925781,0.705810547,0.658325195,0.804601049,-0.267996772,0.188118781
0.047119141,0.881469727,0.567504883,0.261683743,0.174464178,0.164536852
-0.073486328,1.117553711,0.012939453,0.093545917,0.586548405,0.104316331
-0.115112305,0.998535156,0.184326172,0.012008398,0.546445802,0.081800251
-0.100097656,0.94128418,0.247192383,-0.222078892,0.17686234,0.079002395
-0.096557617,0.987182617,0.219848633,-0.359706763,-0.179397997,0.04942506
-0.088378906,1.032714844,0.16796875,-0.369565875,-0.275724184,0.023578199
-0.100219727,1.043945313,0.174194336,-0.359573532,-0.26879616,-0.004933286
-0.101928711,1.063720703,0.152832031,-0.298953317,-0.06695083,-0.003867436
-0.100952148,1.055175781,0.133911133,-0.260049795,0.017784239,-0.008130836
-0.108154297,1.027832031,0.151367188,-0.138542904,0.061750548,-0.022120116
-0.10949707,1.023193359,0.163085938,-0.063134022,0.028043044,-0.030113991
-0.099365234,1.004516602,0.171020508,0.079689868,-0.084004429,-0.050231908
-0.079345703,0.991699219,0.170654297,0.14537287,-0.12810397,-0.070749519
-0.068359375,0.969360352,0.17175293,0.235703651,-0.166341336,-0.093665293
-0.060791016,0.9609375,0.163574219,0.260084968,-0.164875792,-0.091533593
-0.0625,0.960449219,0.175537109,0.246495382,-0.136231075,-0.079276319
-0.081787109,0.979003906,0.166992188,0.243564294,-0.104255577,-0.062489182
-0.094848633,0.982055664,0.189453125,0.233838414,-0.070947767,-0.023319198
-0.100830078,0.981567383,0.186645508,0.210522947,-0.063220355,-0.000136962
-0.088500977,0.982421875,0.182495117,0.185741936,-0.071747155,-0.009862842
-0.085205078,0.969848633,0.186157227,0.110066591,-0.078941642,-0.034110928
-0.065307617,0.967895508,0.19128418,0.066100282,-0.062021274,-0.046901127
-0.065307617,0.990844727,0.192138672,-0.013838462,0.004594346,-0.059957789
-0.069213867,1.00390625,0.181762695,-0.044481648,0.031507057,-0.054495308
-0.061889648,1.026367188,0.18737793,-0.082719014,0.058153305,-0.059824558
-0.054931641,1.013427734,0.17956543,-0.126019167,0.077072141,-0.070616288
-0.059936523,0.993164063,0.170410156,-0.15426419,0.075473366,-0.067818432
-0.083618164,1.021972656,0.166625977,-0.17571442,0.057886842,-0.038907253
-0.087280273,1.038330078,0.155883789,-0.17464857,0.039634162,-0.025184435
-0.080200195,1.026367188,0.149902344,-0.165455614,0.023779645,-0.013993011
-0.083984375,1.01965332,0.135620117,-0.146403547,0.005526965,0.013052931
-0.086303711,1.010986328,0.14465332,-0.103902781,0.022047639,0.052089685
-0.081542969,1.017211914,0.148193359,-0.071660821,0.01898332,0.068876821
-0.078735352,1.018798828,0.145629883,0.00361483,-0.018721121,0.070209133
-0.075805664,1.007202148,0.155639648,0.040653115,-0.030978395,0.064746652
-0.073730469,0.994506836,0.147705078,0.093545917,-0.009927859,0.049291829
-0.071411133,0.992431641,0.153198242,0.107401966,0.01365407,0.03983241
-0.082397461,0.991577148,0.155761719,0.127386653,0.056021605,0.025443436
-0.094482422,0.991577148,0.174438477,0.138578077,0.0393677,0.037833942
-0.098266602,0.984863281,0.18347168,0.138311614,0.008058358,0.043562885
-0.091552734,0.974853516,0.175537109,0.120725091,-0.040704276,0.046627204
-0.079467773,0.977783203,0.181274414,0.088616362,-0.034042714,0.024510818
-0.080810547,0.982299805,0.184082031,0.073428,-0.020319896,0.011720619
-0.077514648,0.977661133,0.186889648,0.032126316,0.006459583,-0.011328386
-0.077270508,0.978881836,0.18371582,0.010276392,0.024046107,-0.016657636
-0.073608398,0.998535156,0.185058594,-0.017302475,0.056021605,-0.032245691
-0.077270508,1.001831055,0.186035156,-0.02542958,0.06188378,-0.046634665
-0.074584961,1.004760742,0.182739258,-0.034888999,0.062683167,-0.0783437
-0.075927734,0.999389648,0.177734375,-0.040218248,0.063349323,-0.083273256
-0.073486328,1.000244141,0.177124023,-0.052608754,0.058153305,-0.074746456
-0.074951172,1.014160156,0.171630859,-0.055273378,0.051891437,-0.066086426
-0.072875977,1.01184082,0.170898438,-0.053807835,0.039634162,-0.043437115
-0.078735352,1.006347656,0.168945313,-0.05540661,0.0329726,-0.027049672
-0.074462891,1.00769043,0.173583984,-0.048878279,0.026710732,0.012653237
-0.061889648,0.999389648,0.168334961,-0.046746579,0.026177807,0.028241293
-0.057006836,1.012939453,0.16394043,-0.037287161,0.042298787,0.047826285
-0.057983398,1.021240234,0.142211914,-0.022232031,0.052024668,0.069276515
-0.067871094,1.004516602,0.169067383,-0.012639381,0.034171682,0.102184631
-0.072143555,1.017456055,0.211791992,-0.026362199,0.014053764,0.113242824
-0.067016602,1.026000977,0.232666016,-0.137610285,-0.024183602,0.140155535
-0.098754883,1.010498047,0.249755859,-0.232470928,-0.036440876,0.143086622
-0.115112305,0.999023438,0.23059082,-0.401541373,-0.011659865,0.075538383
-0.110839844,0.994506836,0.203613281,-0.448572001,0.017784239,0.041564417
-0.117675781,0.979248047,0.061035156,-0.422858371,0.067479492,-0.038107865
-0.106323242,0.986572266,0.161499023,-0.371964037,0.083200778,-0.071682138
-0.07043457,0.993286133,0.225585938,-0.35610952,0.055888374,-0.04610174
-0.058227539,1.022949219,0.215820313,-0.347049795,-0.03790642,0.02371143
-0.057739258,1.019287109,0.21472168,-0.353444895,-0.09053276,0.046893666
-0.072387695,0.998657227,0.265136719,-0.391948723,-0.1388957,0.067011584
-0.066162109,0.987792969,0.245849609,-0.413931878,-0.146756343,0.057152472
-0.059936523,0.977294922,0.225830078,-0.429786396,-0.139162163,0.027042211
-0.040893555,0.984130859,0.234863281,-0.422591909,-0.108918671,0.023178505
-0.043945313,0.99621582,0.246459961,-0.406737391,-0.014724184,0.040498567
-0.061645508,1.009887695,0.266235352,-0.397411204,0.042432018,0.04942506
-0.075805664,1.023071289,0.276489258,-0.367167713,0.106782708,0.027575136
-0.074584961,1.031494141,0.310180664,-0.349048264,0.097190058,0.003993207
-0.062255859,1.025268555,0.311645508,-0.313475523,0.023513182,-0.019988417
-0.042480469,1.011108398,0.315917969,-0.301751173,-0.010993709,-0.015325323
-0.048217773,1.01184082,0.328735352,-0.302284098,-0.064685899,-0.003068049
-0.044799805,1.005371094,0.355712891,-0.310411204,-0.069615455,-0.009862842
-0.044189453,0.997802734,0.334838867,-0.338522996,-0.058956956,-0.034110928
-0.049438477,0.953613281,0.303710938,-0.35504367,-0.030578701,-0.041705109
-0.05847168,0.952514648,0.309814453,-0.405938004,0.06734626,-0.03104661
-0.059326172,0.982299805,0.336303711,-0.420326978,0.116908282,-0.019055798
-0.064208984,1.001098633,0.344604492,-0.435248877,0.141556061,0.0086563
-0.071777344,1.015625,0.388061523,-0.436980883,0.109047639,0.012520006
-0.071655273,1.010864258,0.405273438,-0.436181495,0.037102769,-0.00959638
-0.073730469,0.985595703,0.388427734,-0.430985477,0.01685162,-0.027449366
-0.075927734,0.999755859,0.378417969,-0.414997728,-0.022051902,-0.031579534
-0.060302734,1.000366211,0.407714844,-0.408869091,-0.056558793,-0.008130836
-0.057983398,1.017578125,0.433349609,-0.433250408,-0.072546542,-0.014392704
-0.075195313,1.008300781,0.450683594,-0.496002322,-0.065085593,-0.048499902
-0.053710938,0.975463867,0.393554688,-0.530908907,-0.031111626,-0.067285507
-0.056518555,0.948364258,0.397460938,-0.577140148,0.058286536,-0.0740803
-0.063598633,0.934448242,0.413085938,-0.583668479,0.10385162,-0.068751051
-0.070068359,0.931274414,0.421630859,-0.601255002,0.155678573,-0.063555032
-0.087158203,0.94921875,0.449462891,-0.607783333,0.153813336,-0.057826089
-0.09375,0.963989258,0.47644043,-0.597657759,0.076539216,-0.063821495
-0.102783203,0.97265625,0.472900391,-0.578072766,0.019249783,-0.084339106
-0.098022461,0.971801758,0.413452148,-0.580870623,-0.071480692,-0.110852123
-0.090454102,0.933837891,0.434814453,-0.58167001,-0.06695083,-0.101525936
-0.090576172,0.938232422,0.462280273,-0.563950255,0.010589752,-0.070083363
-0.091186523,0.932861328,0.486450195,-0.546363731,0.076539216,-0.075945538
-0.086181641,0.923706055,0.501342773,-0.542899719,0.088929721,-0.076744925
-0.078125,0.915283203,0.53125,-0.561552093,0.072409048,-0.068218126
-0.062133789,0.895751953,0.536865234,-0.565948724,0.048827118,-0.056493776
-0.059082031,0.922363281,0.510498047,-0.579005385,-0.020319896,-0.025051204
-0.053466797,0.902709961,0.48815918,-0.605784865,-0.061088656,0.006657832
-0.068237305,0.883666992,0.525390625,-0.629766488,-0.050296925,0.031838536
-0.104980469,0.874267578,0.606933594,-0.796572001,-0.006597078,0.019581262
-0.07434082,0.864379883,0.592163086,-0.871847652,0.033372294,-0.004533593
-0.055908203,0.860961914,0.547729492,-0.926339229,0.095857746,0.009055994
-0.082885742,0.869018555,0.558959961,-0.925806304,0.110113489,0.017849256
-0.097167969,0.882324219,0.596313477,-0.903689919,0.10278577,0.039699179
-0.09375,0.907104492,0.659057617,-0.900492369,0.080536153,0.049291829
-0.083740234,0.876220703,0.655273438,-0.893031419,0.022047639,0.049824754
-0.087158203,0.825561523,0.642333984,-0.873313196,-0.006597078,0.040098873
-0.075683594,0.82421875,0.640258789,-0.819354543,-0.047499069,0.03330408
-0.070068359,0.852783203,0.682861328,-0.79004367,-0.04656645,0.040631798
-0.067382813,0.866088867,0.703613281,-0.756869091,-0.022984521,0.059817097
-0.034790039,0.865722656,0.732299805,-0.741414267,-0.007529697,0.059417403
-0.025756836,0.844360352,0.720092773,-0.712103395,0.021781176,0.034236698
-0.063232422,0.827392578,0.696044922,-0.691319321,0.032439675,0.013186162
-0.072021484,0.819458008,0.70703125,-0.686522996,0.046029262,-0.001868968
-0.095947266,0.808349609,0.755126953,-0.703310133,0.05015943,-0.010795461
-0.105834961,0.799682617,0.781494141,-0.735818555,0.064681636,-0.026250285
-0.094360352,0.812133789,0.764648438,-0.732621006,0.117707669,-0.024251816
-0.092651367,0.802856445,0.773071289,-0.722228969,0.137292662,-0.025051204
-0.092651367,0.781738281,0.758056641,-0.694916564,0.130231406,-0.020787804
-0.097412109,0.751342773,0.760742188,-0.665072767,0.081335541,-0.00746468
-0.091064453,0.744140625,0.798828125,-0.657745048,0.052424361,-0.003867436
-0.07019043,0.731567383,0.821289063,-0.669336166,0.011255908,-0.011861311
-0.060668945,0.737060547,0.798583984,-0.672666947,-0.008329084,-0.022786273
-0.056274414,0.721313477,0.752807617,-0.691052859,-0.049364306,-0.039306946
-0.061523438,0.692260742,0.77746582,-0.69012024,-0.058157568,-0.038107865
-0.110107422,0.697631836,0.822021484,-0.702244283,-0.055492943,-0.028115522
-0.103271484,0.686157227,0.838623047,-0.744745048,-0.007796159,0.01185385
-0.076416016,0.665771484,0.827148438,-0.776320853,0.05975208,0.038366867
-0.053833008,0.65637207,0.826049805,-0.76526266,0.082268159,0.032904386
-0.046386719,0.659179688,0.819946289,-0.69331779,0.082001697,0.021846193
-0.068969727,0.649780273,0.874511719,-0.66334076,0.056954224,0.020647112
-0.090209961,0.66027832,0.899902344,-0.620040607,-0.015656802,0.033837005
-0.08972168,0.653442383,0.927612305,-0.589264191,-0.0561591,0.067011584
-0.073486328,0.64074707,0.941772461,-0.571677667,-0.06481913,0.077803314
-0.043701172,0.619995117,0.89440918,-0.553691449,-0.06588498,0.072207602
-0.044677734,0.613525391,0.913696289,-0.536904313,-0.067483755,0.060083559
-0.073120117,0.612060547,0.953491211,-0.51612024,-0.074545011,0.027575136
-0.06237793,0.612915039,0.931640625,-0.495069704,-0.041237201,0.030506224
-0.05078125,0.62512207,0.926025391,-0.495202935,-0.007929391,0.028374524
-0.026855469,0.626464844,0.927490234,-0.507726671,0.069078267,-0.005199749
-0.064453125,0.588012695,0.918701172,-0.456965569,0.097056827,-0.033844466
-0.065307617,0.586547852,0.94140625,-0.422325446,0.094258971,-0.050098677
-0.066650391,0.575317383,0.955322266,-0.38941733,0.092526965,-0.073947069
-0.073608398,0.565551758,0.955566406,-0.384221311,0.098922064,-0.072881219
-0.088500977,0.572143555,0.950195313,-0.372097269,0.121971069,-0.067019045
-0.096557617,0.574584961,0.964477539,-0.3658354,0.089062953,-0.048100208
-0.091430664,0.561035156,0.985473633,-0.384221311,0.045229874,-0.037175247
-0.088378906,0.533691406,0.964355469,-0.434982414,-0.020586358,-0.026516747
-0.076538086,0.530883789,0.966674805,-0.441510745,-0.010993709,-0.030513685
-0.069946289,0.530883789,0.979003906,-0.447239688,0.026311038,-0.042770959
-0.071777344,0.528686523,0.993896484,-0.4570988,0.029375357,-0.042504496
-0.074951172,0.516479492,0.992797852,-0.473619474,0.042831712,-0.017989948
-0.06652832,0.52746582,0.982177734,-0.483878279,0.066946567,-0.004666824
-0.06640625,0.554321289,1.026489258,-0.485610286,0.094925127,0.003060588
-0.06628418,0.514404297,0.997436523,-0.469622537,0.095990977,0.000129501
-0.079711914,0.493896484,0.989013672,-0.435915033,0.055621911,0.009055994
-0.081298828,0.470581055,1.036621094,-0.434449489,0.019782708,0.021446499
-0.069458008,0.446899414,1.046630859,-0.478149336,-0.039771657,0.040365335
-0.052856445,0.459838867,1.032226563,-0.487875217,-0.038172882,0.030506224
-0.04309082,0.442504883,1.005981445,-0.482812429,-0.000201979,0.004126438
-0.061889648,0.453491211,1.055786133,-0.463227437,0.013520839,-0.006265599
-0.080688477,0.431396484,1.066772461,-0.467357606,0.031773519,0.002927357
-0.073852539,0.427246094,1.037353516,-0.482945661,0.073075204,0.019181568
-0.06640625,0.41809082,1.027099609,-0.478948723,0.083467241,0.011720619
-0.084228516,0.422851563,1.038452148,-0.434449489,0.044963412,-0.023985354
-0.082519531,0.410766602,1.026855469,-0.412066641,0.001663259,-0.047034358
-0.102050781,0.407592773,1.028442383,-0.418861434,-0.078675179,-0.051031296
-0.066162109,0.39050293,1.098144531,-0.464826212,-0.081872729,-0.051031296
-0.051025391,0.388183594,1.081787109,-0.482146273,-0.051362775,-0.059824558
-0.049804688,0.392456055,1.026611328,-0.481346886,-0.004065685,-0.067551969
-0.071777344,0.381347656,1.024536133,-0.493204466,0.051092049,-0.074746456
-0.092773438,0.377319336,1.056274414,-0.507859903,0.048827118,-0.065686732
-0.074707031,0.38659668,1.038574219,-0.514255002,0.043231406,-0.063954726
-0.077026367,0.372192383,1.037353516,-0.535971694,0.068145648,-0.066619351
-0.087036133,0.348022461,1.048461914,-0.553158524,0.085199247,-0.062755645
-0.088500977,0.337402344,1.064331055,-0.571411204,0.113311038,-0.042238034
-0.079711914,0.340576172,1.067993164,-0.564083486,0.114110426,-0.028115522
-0.080688477,0.330932617,1.06628418,-0.546763425,0.066546873,0.000662426
-0.058837891,0.296142578,1.057495117,-0.519983946,0.03403845,0.001595044
-0.063476563,0.292724609,1.052490234,-0.478282567,-0.033776251,-0.00213543
-0.049194336,0.268188477,1.075073242,-0.476550561,-0.090799222,-0.000136962
-0.043945313,0.275024414,1.097045898,-0.488141679,-0.110783908,-0.002668355
-0.063476563,0.275390625,1.083740234,-0.521449489,-0.111050371,0.007323988
-0.072265625,0.264160156,1.064208984,-0.540101863,-0.099459253,0.031438842
-0.119262695,0.228637695,1.091796875,-0.573276442,-0.065751749,0.033170848
-0.093994141,0.223266602,1.110107422,-0.587132491,-0.032443939,0.03436993
-0.066040039,0.225830078,1.101806641,-0.592062047,0.066413642,0.043296423
-0.064697266,0.221313477,1.074462891,-0.586333103,0.133162493,0.043296423
-0.039916992,0.243286133,1.058959961,-0.607516871,0.219896031,0.00545875
-0.035644531,0.222167969,1.072265625,-0.598990071,0.237749017,-0.016657636
-0.055053711,0.182739258,1.150756836,-0.538369857,0.254003229,-0.062622414
-0.064331055,0.192504883,1.137329102,-0.52691197,0.256934316,-0.069683669
-0.067504883,0.181884766,1.130859375,-0.484144742,0.266660196,-0.064487651
-0.071289063,0.183349609,1.134887695,-0.426322383,0.263329415,-0.062755645
-0.116699219,0.211547852,1.106445313,-0.318671541,0.231353918,-0.087803118
-0.096557617,0.180053711,1.080566406,-0.291492368,0.197513183,-0.098594849
-0.1015625,0.168823242,1.057495117,-0.304282567,0.082134928,-0.091933286
-0.064331055,0.168334961,1.089233398,-0.362238157,-0.043102438,-0.096862842
-0.075195313,0.117797852,1.165771484,-0.329729734,-0.105721121,-0.100593317
-0.149536133,0.141113281,1.157104492,-0.340654696,-0.246413311,-0.064221188
-0.126342773,0.106201172,1.114257813,-0.358107988,-0.298506726,-0.041705109
-0.117797852,0.126464844,1.075805664,-0.370498494,-0.338076405,-0.012261005
-0.085083008,0.123779297,1.089477539,-0.383954849,-0.33114838,-0.007331449
-0.050170898,0.112060547,1.118652344,-0.454034481,-0.340341336,-0.006132368
-0.041259766,0.068115234,1.189086914,-0.457365262,-0.356462316,-0.009196686
-0.046630859,0.072631836,1.170043945,-0.473885936,-0.417215762,-0.003467743
-0.045776367,0.104125977,1.138671875,-0.496002322,-0.444261704,-0.003734205
-0.027099609,0.052734375,1.091552734,-0.501198341,-0.436267829,0.017982487
-0.004882813,0.050170898,1.09362793,-0.518385171,-0.415750218,0.014518475
-0.019165039,0.055419922,1.131469727,-0.581936472,-0.391502132,0.001195351
-0.03894043,0.059204102,1.144897461,-0.615643976,-0.394566451,0.017716025
-0.024902344,0.04675293,1.162109375,-0.653881342,-0.436134598,0.005858444
-0.002197266,0.05065918,1.17175293,-0.653881342,-0.463313771,-0.020121648
0.04699707,0.026977539,1.176147461,-0.611380577,-0.465045777,-0.044636196
0.043212891,0.037597656,1.119506836,-0.590330041,-0.436001367,-0.039973103
0.016723633,0.034179688,1.130981445,-0.556356074,-0.352731841,-0.003600974
0.019287109,0.025878906,1.164550781,-0.594060515,-0.274525103,0.035302548
0.038452148,-0.001953125,1.184570313,-0.58593341,-0.238152974,0.019714493
0.045288086,0.003662109,1.166381836,-0.525313195,-0.159146849,-0.007331449
0.063354492,-0.009521484,1.140991211,-0.494003854,-0.10452204,-0.028515216
0.083984375,-0.026733398,1.139648438,-0.461628662,6.44839E-05,-0.040106334
0.080200195,-0.037109375,1.155273438,-0.459363731,0.040833244,-0.033711234
0.051513672,-0.050048828,1.143432617,-0.463360668,0.073075204,-0.027982291
0.05859375,-0.062133789,1.146118164,-0.467490837,0.143687761,-0.032245691
0.055908203,-0.079467773,1.138549805,-0.4634939,0.204707669,-0.039040484
0.060791016,-0.0859375,1.15234375,-0.48068073,0.347398328,-0.052630071
0.049926758,-0.081542969,1.152832031,-0.506127897,0.403621912,-0.042504496
0.053710938,-0.094604492,1.118774414,-0.567281036,0.449186996,-0.011861311
0.026489258,-0.142822266,1.104492188,-0.561418861,0.405753612,0.001328582
0.002685547,-0.142333984,1.157836914,-0.537703701,0.369647945,0.011320925
0.022216797,-0.154907227,1.135009766,-0.511990071,0.314223749,-0.003600974
0.038574219,-0.136108398,1.113647461,-0.517585783,0.273188527,-0.014126242
0.028808594,-0.157836914,1.108642578,-0.527178433,0.256534622,-0.032911847
-0.004760742,-0.183837891,1.075927734,-0.593127897,0.225624974,-0.080741862
-0.01550293,-0.192993164,1.064575195,-0.624304007,0.212168619,-0.09446468
-0.022705078,-0.229125977,1.088745117,-0.625769551,0.188186996,-0.080342169
-0.019775391,-0.239257813,1.112304688,-0.634029888,0.143421299,-0.071415675
-0.028198242,-0.210449219,1.115600586,-0.605651633,0.014586689,-0.082473868
-0.029296875,-0.227294922,1.118774414,-0.571544436,-0.039638426,-0.094331449
-0.044433594,-0.238525391,1.145507813,-0.56128563,-0.130768594,-0.101525936
-0.048828125,-0.243530273,1.112304688,-0.561951786,-0.167140723,-0.104323792
-0.029663086,-0.243041992,1.060913086,-0.530908907,-0.243881918,-0.100193623
-0.00390625,-0.249023438,1.104248047,-0.462028356,-0.315427094,-0.110185966
0.002685547,-0.251708984,1.16796875,-0.441910439,-0.328084062,-0.120444772
0.009399414,-0.25769043,1.142700195,-0.454167713,-0.26986201,-0.134833746
0.020019531,-0.261108398,1.087646484,-0.450836932,-0.203779314,-0.130703578
0.031005859,-0.268432617,1.093383789,-0.432850714,-0.060156037,-0.105789336
0.008789063,-0.303588867,1.091918945,-0.462694512,-0.014990646,-0.088469274
0.006103516,-0.320556641,1.101806641,-0.480281036,-0.026315302,-0.106988417
0.033691406,-0.320922852,1.100097656,-0.487608754,-0.051096312,-0.161879688
0.030151367,-0.324584961,1.08605957,-0.501464803,-0.059223418,-0.168807712
0.033691406,-0.340820313,1.062133789,-0.52264857,-0.06481913,-0.163744925
0.046142578,-0.364013672,1.058105469,-0.531308601,-0.059090187,-0.158282444
0.04296875,-0.358764648,1.049072266,-0.532507682,-0.014857415,-0.112850591
0.047119141,-0.359008789,1.019042969,-0.542899719,0.013387608,-0.077544313
0.065551758,-0.359619141,1.008666992,-0.593794053,0.012321758,-0.036775553
0.057006836,-0.358886719,1.031616211,-0.590596503,-0.014058028,-0.03864079
0.058227539,-0.365478516,1.057739258,-0.575008448,-0.056558793,-0.028248753
0.048217773,-0.372802734,1.042114258,-0.583402016,-0.054293862,-0.002002199
0.061401367,-0.378295898,1.021850586,-0.677463272,-0.044035057,0.057552165
0.083374023,-0.391967773,0.99206543,-0.71157047,-0.052695087,0.075938077
0.086791992,-0.411376953,1,-0.790576595,-0.10878544,0.14615094
0.083740234,-0.403808594,1.031738281,-0.820420393,-0.142492944,0.175728276
0.077026367,-0.415039063,1.01953125,-0.819754237,-0.126105501,0.181723682
0.045532227,-0.438110352,1.014404297,-0.840405079,-0.093064153,0.211034555
0.015380859,-0.409057617,1.005249023,-0.868650102,-0.111183602,0.23088601
0.016479492,-0.428100586,0.99987793,-0.940062047,-0.187791565,0.303230573
0.061645508,-0.43762207,0.986083984,-0.942593441,-0.181929391,0.416610359
0.072143555,-0.479858398,1,-0.91994413,-0.084937048,0.454847725
0.036499023,-0.50402832,0.993041992,-0.920743517,-0.047765531,0.438726745
0.0390625,-0.512573242,0.992675781,-0.913948724,-0.04003812,0.380771155
0.011962891,-0.523925781,0.944458008,-0.962977821,-0.143692025,0.334406683
0.032470703,-0.551269531,0.91796875,-0.987359138,-0.200448533,0.320550634
0.045043945,-0.595581055,0.899536133,-0.922741986,-0.254273954,0.28138065
0.049072266,-0.60925293,0.927124023,-0.907686856,-0.271194322,0.256999333
0.042480469,-0.607788086,0.916015625,-0.95325194,-0.286249452,0.229287235
0.050415039,-0.651000977,0.899414063,-0.961245814,-0.227760938,0.189451094
0.02734375,-0.657470703,0.886108398,-0.940594972,-0.207243326,0.17612797
0.012451172,-0.653198242,0.903076172,-0.898227438,-0.229492944,0.154411277
0.053222656,-0.660766602,0.876953125,-0.897161588,-0.266531229,0.146817097
0.07824707,-0.67175293,0.869873047,-0.871847652,-0.332080999,0.145085091
0.077514648,-0.691650391,0.859130859,-0.856259597,-0.354330616,0.152945734
0.07800293,-0.690795898,0.852539063,-0.84906511,-0.340474567,0.193847725
0.071777344,-0.709106445,0.836425781,-0.863587315,-0.232157568,0.20730408
0.067138672,-0.705444336,0.810424805,-0.865585784,-0.12490642,0.204239761
0.056762695,-0.71875,0.801269531,-0.899826213,0.048560656,0.201841599
0.051757813,-0.726928711,0.80859375,-0.910884406,0.157943504,0.209169317
0.047485352,-0.721313477,0.761962891,-0.921276442,0.181258971,0.190650175
0.045898438,-0.730102539,0.686157227,-0.938463272,0.124502463,0.146417403
0.055297852,-0.746337891,0.682495117,-0.924873686,0.064548404,0.143353084
0.04296875,-0.750854492,0.708984375,-0.924340761,-0.01006109,0.157075902
0.03527832,-0.760375977,0.699462891,-0.947789459,-0.119843633,0.194513881
0.009887695,-0.774536133,0.680786133,-0.977233563,-0.12597227,0.250604233
0.024902344,-0.789306641,0.680053711,-0.977100332,-0.096794628,0.249005458
0.031005859,-0.812866211,0.689208984,-0.93286756,-0.006463847,0.216630267
0.045043945,-0.830566406,0.658081055,-0.910617943,0.022847026,0.220360741
0.044311523,-0.850463867,0.628417969,-0.872380577,0.05868623,0.212233636
0.018432617,-0.862060547,0.62109375,-0.829080424,0.049226812,0.173596576
0.006713867,-0.860473633,0.617919922,-0.8093622,0.03190675,0.159873758
0.032836914,-0.896362305,0.610717773,-0.733287162,0.02218087,0.114575136
0.050048828,-0.896240234,0.609130859,-0.653481649,0.013254377,0.115907449
0.043579102,-0.891601563,0.615966797,-0.616709826,0.016585158,0.119104999
-0.001220703,-0.9140625,0.603027344,-0.567947192,0.06081793,0.13535921
-0.018432617,-0.919677734,0.583496094,-0.537437238,0.100787302,0.14615094
0.035766602,-0.92565918,0.564208984,-0.473752705,0.140490212,0.122036086
0.040527344,-0.921386719,0.555908203,-0.453634788,0.134761268,0.112576668
0.011108398,-0.939331055,0.541259766,-0.415130959,0.129964944,0.088328582
0.003051758,-0.956054688,0.552612305,-0.396878279,0.133562187,0.057951859
0.004882813,-0.943115234,0.536743164,-0.354777207,0.157010885,0.016916637
0.009643555,-0.924804688,0.519042969,-0.351313195,0.170866934,0.009855381
-0.011962891,-0.923461914,0.492919922,-0.330529121,0.222960349,-0.008663761
-0.016357422,-0.92980957,0.496337891,-0.284431112,0.196047639,-0.010528998
-0.010864258,-0.930541992,0.50012207,-0.266178432,0.143820993,-0.009063455
-0.014160156,-0.939331055,0.479125977,-0.24659344,0.052424361,-0.012660698
-0.002319336,-0.927856445,0.49987793,-0.313075829,0.022847026,-0.042371265
-0.005493164,-0.903320313,0.516601563,-0.374895125,0.034704606,-0.043836809
0.016235352,-0.897827148,0.458618164,-0.464959443,0.152214561,-0.03864079
0.004150391,-0.900390625,0.428466797,-0.47641733,0.194582095,-0.027316135
0.001586914,-0.911865234,0.441040039,-0.48174658,0.097456521,0.004792594
0.016357422,-0.904785156,0.489013672,-0.466691449,-0.002600141,0.027841599
0.033447266,-0.919677734,0.48034668,-0.445374451,-0.170871198,0.076604233
0.026123047,-0.91418457,0.462890625,-0.431651633,-0.199915608,0.104982487
0.015380859,-0.915649414,0.452270508,-0.420060515,-0.145424031,0.136025366
-0.008544922,-0.925415039,0.45324707,-0.420060515,-0.093730309,0.145618016
-0.019042969,-0.911010742,0.460205078,-0.450570469,-0.029779314,0.183988613
-0.012695313,-0.898803711,0.444335938,-0.488408142,-0.010727247,0.191982487
0.018432617,-0.891479492,0.415161133,-0.559953318,0.054556061,0.193048337
0.005737305,-0.912475586,0.400024414,-0.590463272,0.072941973,0.1911831
-0.006591797,-0.922485352,0.414428711,-0.609382108,0.054689293,0.195979424
-0.035400391,-0.90222168,0.386474609,-0.609648571,0.03403845,0.197844662
-0.046630859,-0.8984375,0.35144043,-0.643356074,0.03190675,0.188518475
-0.030761719,-0.933227539,0.342529297,-0.660409673,0.054156368,0.177993207
-0.025390625,-0.950439453,0.360839844,-0.664140148,0.07907061,0.135225979
-0.05090332,-0.943725586,0.349487305,-0.657078892,0.074540747,0.119371461
-0.07019043,-0.927978516,0.332885742,-0.635095737,0.065214561,0.117639455
-0.04675293,-0.942504883,0.317260742,-0.628167713,0.05442283,0.124301017
-0.024169922,-0.958129883,0.311645508,-0.583402016,0.045096643,0.116440374
-0.04284668,-0.975097656,0.310424805,-0.49040661,0.036303381,0.117639455
-0.048095703,-0.979858398,0.295776367,-0.449504619,0.019915939,0.111910512
-0.05065918,-0.970581055,0.263305664,-0.361039076,-0.011659865,0.086863038
-0.045288086,-0.966918945,0.257080078,-0.314807835,-0.023250983,0.079002395
-0.061157227,-0.967407227,0.284179688,-0.221146273,-0.018188196,0.065013115
-0.074707031,-0.969360352,0.275390625,-0.197964037,0.004061421,0.056752778
-0.092407227,-0.970092773,0.258544922,-0.177179963,0.072941973,0.032504692
-0.078979492,-0.977539063,0.23815918,-0.170518401,0.10385162,0.010121844
-0.062866211,-0.973754883,0.216552734,-0.165455614,0.102386077,-0.028781678
-0.072143555,-0.985473633,0.253417969,-0.126019167,0.011655602,-0.053829152
-0.052246094,-0.988647461,0.249023438,-0.111763424,-0.044168288,-0.053962383
-0.038085938,-0.964599609,0.238037109,-0.10590125,-0.076943173,-0.013326855
-0.014892578,-0.977294922,0.243164063,-0.160259596,-0.00033521,0.012520006
-0.021240234,-0.98840332,0.203613281,-0.203959443,0.120372294,-0.055427927
-0.053710938,-1.000854492,0.21862793,-0.155196809,0.085199247,-0.033844466
-0.087158203,-0.987915039,0.231201172,-0.12095638,0.011788833,-0.039040484
-0.07043457,-0.981201172,0.226074219,-0.108832337,-0.015656802,-0.039440178
-0.033935547,-0.98815918,0.193237305,-0.082719014,-0.0455006,-0.045702046
-0.054321289,-0.98815918,0.216674805,-0.073392827,-0.076676711,-0.048766365
-0.043334961,-0.975463867,0.23046875,-0.125486242,-0.050296925,-0.060757176
-0.026489258,-0.989257813,0.236083984,-0.132680729,-0.014058028,-0.03544324
-0.03527832,-0.983398438,0.250976563,-0.090712888,-0.038439345,-0.005599443
-0.029418945,-0.974975586,0.24206543,-0.057538309,-0.057757875,0.050624141
-0.025634766,-0.985717773,0.196533203,-0.072726671,0.014853152,0.044362273
-0.049316406,-0.990966797,0.204711914,-0.072859902,0.078670916,0.014651706
-0.046020508,-0.989013672,0.21496582,-0.055539841,0.077205372,-0.013326855
-0.039550781,-0.981567383,0.208496094,-0.046746579,0.067612723,-0.012527467
-0.039916992,-0.979980469,0.190307617,-0.030359136,0.053756674,-0.005865905
-0.034179688,-0.99621582,0.191650391,-0.027028355,0.030441207,-0.009063455
-0.02722168,-0.990356445,0.217285156,-0.023031418,-0.028580233,-0.015192092
-0.028320313,-0.989501953,0.216918945,-0.014104925,-0.008329084,0.001994738
-0.025146484,-0.988769531,0.217651367,-0.012639381,0.026710732,0.011720619
-0.032836914,-0.987915039,0.219726563,-0.023164649,0.086798022,0.021979424
-0.039916992,-0.98046875,0.201660156,-0.030625599,0.120771988,0.022379118
-0.030029297,-0.979736328,0.192016602,-0.016636319,0.12317015,0.040631798
-0.043945313,-0.985839844,0.202270508,-0.001581188,0.109980257,0.046893666
-0.052368164,-0.990600586,0.197265625,0.02080166,0.064814867,0.035702242
-0.045654297,-0.989501953,0.193969727,0.045049746,0.051758205,0.007190757
-0.041992188,-0.981689453,0.202392578,0.051444845,0.061350855,0.005591982
-0.049194336,-0.977294922,0.189086914,0.045849133,0.109580564,0.022379118
-0.040161133,-0.982788086,0.1875,0.02719676,0.126634163,0.015850787
-0.029907227,-0.993896484,0.181396484,0.027862916,0.118906751,-0.003068049
-0.034790039,-0.989746094,0.184814453,0.048780221,0.082001697,-0.013193623
-0.049682617,-0.979003906,0.194702148,0.063835351,0.058552999,-0.011994542
-0.069335938,-0.969116211,0.184692383,0.073428,0.022047639,-0.013460086
-0.078613281,-0.971069336,0.183349609,0.066766438,0.00819159,-0.01932226
-0.055541992,-0.974975586,0.185668945,0.026264141,-0.016322959,-0.039040484
-0.030639648,-0.9921875,0.198242188,0.012274861,-0.01112694,-0.041705109
-0.019775391,-0.995727539,0.20690918,-0.003046732,0.027909813,-0.038774021
-0.021972656,-0.991210938,0.208374023,-0.012106456,0.048294193,-0.037441709
-0.032104492,-0.985229492,0.206176758,-0.045947191,0.055355449,-0.019721954
-0.031738281,-1.002319336,0.211303711,-0.054873685,0.032839369,-0.004133899
-0.020507813,-1.00378418,0.208007813,-0.031558218,0.014986383,0.005991675
-0.026367188,-0.997070313,0.209716797,-0.02649543,0.007791896,0.012653237
-0.047973633,-0.984619141,0.209594727,-0.036487773,0.02324672,0.025976361
-0.046386719,-0.990112305,0.204956055,-0.040884404,0.040833244,0.02797483
-0.036621094,-0.997070313,0.20703125,-0.036221311,0.064015479,0.029173911
-0.036743164,-0.996704102,0.201904297,-0.035688386,0.073075204,0.026242824
-0.0546875,-0.960693359,0.192993164,-0.052875216,0.078804147,0.019714493
-0.061523438,-0.972167969,0.198486328,-0.050743516,0.066147179,0.017049868
-0.051269531,-0.972412109,0.191772461,-0.03715393,0.045496337,0.018781874
-0.048339844,-0.974853516,0.204345703,-0.015570469,0.018716858,0.013319394
-0.04699707,-0.974121094,0.203125,-0.013305538,0.020981789,0.006391369
-0.048950195,-0.965454102,0.197509766,-0.027294818,0.048427424,-0.004666824
-0.056518555,-0.974243164,0.192260742,-0.030892061,0.064814867,-0.005732674
-0.052246094,-0.973876953,0.19934082,-0.027161587,0.076539216,-0.009996074
-0.046386719,-0.972900391,0.191040039,-0.036221311,0.077738297,-0.015991479
-0.040527344,-0.989501953,0.192138672,-0.047812429,0.095857746,-0.034244159
-0.040039063,-0.989624023,0.192016602,-0.049144741,0.098522371,-0.034110928
-0.03894043,-0.996826172,0.182617188,-0.030492368,0.071209966,-0.009196686
-0.041992188,-1.008789063,0.190429688,-0.01463785,0.051758205,-0.000803118
-0.04284668,-1.01184082,0.200683594,0.004414217,0.026977195,0.001461813
-0.034790039,-1.00793457,0.187744141,0.005213605,0.022580564,0.000795657
-0.037475586,-1.000976563,0.189819336,-0.002380576,0.044563718,-0.004533593
-0.03515625,-0.996337891,0.180053711,-0.001181495,0.046961881,0.001461813
-0.031738281,-0.989868164,0.189331055,0.010676086,0.008990977,0.021446499
-0.033081055,-0.985961914,0.193237305,0.010542855,-0.011526634,0.027175443
-0.03894043,-0.983154297,0.181274414,-0.000781801,-0.009528165,0.033437311
-0.040771484,-0.984985352,0.186523438,-0.004112582,0.010190058,0.029573605
-0.055175781,-0.973632813,0.185180664,-0.013705231,0.058020074,0.016783406
-0.058349609,-0.966430664,0.173339844,-0.020500025,0.056421299,-0.006798524
-0.048583984,-0.971435547,0.181396484,-0.015037544,0.038035387,-0.018789335
-0.037353516,-0.970825195,0.208007813,0.000683743,0.007658665,-0.028515216
-0.046264648,-0.952392578,0.190551758,-0.000515338,0.015652539,-0.020521342
-0.056762695,-0.951904297,0.190429688,-0.011573531,0.063749017,0.000928888
-0.045898438,-0.967529297,0.169433594,-0.0178354,0.065880717,0.002394432
-0.046264648,-0.990966797,0.174194336,-0.006377513,0.042298787,-0.013859779
-0.036865234,-0.996826172,0.189208984,0.022800129,0.028176276,-0.023718891
-0.041381836,-0.990478516,0.190673828,0.02186751,0.027776582,-0.017323792
-0.034912109,-0.997924805,0.192260742,0.019336116,0.058419767,-0.009196686
-0.037841797,-0.997436523,0.188598633,0.012674554,0.07693891,-0.006265599
-0.043945313,-0.991821289,0.187011719,-0.002647038,0.093592815,-0.001868968
-0.034057617,-0.99206543,0.177490234,-0.017302475,0.088929721,0.000928888
-0.031494141,-0.988769531,0.16784668,-0.028893593,0.090395265,0.008789531
-0.041503906,-0.992675781,0.159545898,-0.028893593,0.080935847,0.014518475
-0.055053711,-0.995605469,0.170776367,-0.032357605,0.062150242,0.010521538
-0.055175781,-0.993530273,0.16394043,-0.028493899,0.033239063,0.005325519
-0.046020508,-0.995849609,0.155517578,-0.021432643,0.028842432,0.003327051
-0.041015625,-0.983642578,0.166870117,-0.014504619,0.014320227,-0.013060392
-0.049194336,-0.993041992,0.172363281,-0.01463785,0.008058358,-0.017323792
-0.049316406,-0.995849609,0.170043945,-0.011839994,-0.002733372,-0.025850591
-0.051147461,-0.991455078,0.186889648,-0.009974757,-0.005397997,-0.021587191
-0.04675293,-0.989990234,0.181152344,-0.007443363,0.011655602,-0.019455492
-0.048339844,-0.978149414,0.184082031,-0.0071769,0.02644427,-0.016524404
-0.043457031,-0.984619141,0.182495117,-0.023564343,0.038568312,0.005591982
-0.026245117,-0.997436523,0.177246094,-0.023697574,0.046961881,0.018515412
-0.032592773,-0.991821289,0.176147461,-0.023964037,0.055888374,0.014918168
-0.037475586,-0.983886719,0.173095703,-0.0157037,0.069211498,0.014118781
-0.041992188,-0.978271484,0.184448242,-0.010507681,0.061350855,0.017982487
-0.060302734,-0.971069336,0.175170898,-0.006777207,0.037236,0.014252012
-0.064208984,-0.971191406,0.166992188,-0.008642444,0.036836306,0.001195351
-0.0546875,-0.966430664,0.159912109,-0.020766487,0.04256525,-0.028248753
-0.054443359,-0.96484375,0.16418457,-0.026628662,0.045363106,-0.030113991
-0.0546875,-0.979492188,0.174194336,-0.017968631,0.054156368,-0.021054266
-0.052124023,-0.979736328,0.16809082,-0.011706763,0.052957286,-0.013593317
-0.048461914,-0.985107422,0.163818359,-0.002114113,0.035370763,-0.010528998
-0.051025391,-0.993286133,0.169311523,0.004414217,0.024046107,-0.010928692
-0.044189453,-1.002319336,0.171630859,0.025597985,0.019782708,-0.015192092
-0.044189453,-0.999023438,0.17578125,0.033458628,0.025644882,-0.013859779
-0.04699707,-0.990478516,0.170776367,0.033058934,0.018317164,-0.00320128
-0.038085938,-0.9921875,0.158203125,0.029461691,0.014053764,-0.003467743
-0.029052734,-0.994628906,0.1640625,0.017470879,0.003128802,-0.014925629
-0.036621094,-0.995605469,0.182495117,0.011741936,0.00392819,-0.006532061
-0.036254883,-0.980712891,0.173828125,0.006679149,0.009390671,-0.004933286
-0.039306641,-0.982177734,0.178588867,-0.011973225,0.010856214,0.002261201
-0.041259766,-0.975708008,0.16418457,-0.02542958,0.008591283,0.004659363
-0.0390625,-0.988037109,0.164916992,-0.043815492,0.016585158,0.004126438
-0.049804688,-0.990966797,0.175048828,-0.043415798,0.022980257,0.002127969
-0.048461914,-0.98059082,0.175048828,-0.039685323,0.023779645,0.006258138
-0.057373047,-0.979492188,0.178344727,-0.040085017,0.025644882,-0.000669887
-0.053710938,-0.983032227,0.170288086,-0.042483179,0.029242126,-0.009862842
-0.043945313,-0.986328125,0.151489258,-0.042083486,0.043764331,-0.016391173
-0.046630859,-0.997436523,0.162109375,-0.015970162,0.037635694,-0.00639883
-0.048461914,-0.997436523,0.172607422,0.00254898,0.017651008,0.001861507
-0.044433594,-1.000732422,0.17199707,0.034124784,-0.008195853,0.007990144
-0.040771484,-0.990966797,0.156738281,0.034524478,0.001929721,0.005725213
-0.042358398,-0.993041992,0.161132813,0.022533666,0.040167087,0.003327051
-0.036254883,-0.99597168,0.165771484,0.019602579,0.056954224,-0.003334511
-0.045898438,-0.990600586,0.180664063,0.030394309,0.068678573,-0.005999136
-0.041503906,-0.975341797,0.175170898,0.030394309,0.061750548,-0.004800055
-0.037719727,-0.972045898,0.171875,0.018536729,0.045896031,-0.000270193
-0.047485352,-0.972167969,0.153930664,0.008011461,0.046961881,0.002127969
-0.052368164,-0.978637695,0.164428711,-0.003712888,0.036703075,-0.002002199
-0.053344727,-0.981323242,0.174316406,-0.007976288,0.019116551,-0.006931755
-0.045532227,-0.979736328,0.166748047,-0.014904312,0.017651008,-0.008130836
-0.039672852,-0.97277832,0.166870117,-0.039552092,0.029242126,0.003460282
-0.044677734,-0.979614258,0.165527344,-0.04687981,0.035637225,0.012120312
-0.036254883,-1.001708984,0.170410156,-0.041417329,0.045496337,0.018648643
-0.050170898,-0.989868164,0.173217773,-0.039818554,0.054822524,0.015317862
-0.047851563,-0.977661133,0.149291992,-0.052875216,0.067612723,0.014385244
-0.054077148,-0.976806641,0.146484375,-0.052342291,0.067745954,0.021180037
-0.056274414,-0.999755859,0.161987305,-0.01890125,0.02431257,0.020247418
-0.050170898,-1.00012207,0.159912109,-0.005578126,-0.003399528,0.010921231
-0.047607422,-0.990478516,0.149902344,0.022666897,-0.026581764,0.005192288
-0.043212891,-0.98449707,0.147338867,0.026797066,-0.029113158,0.001994738
-0.035888672,-0.982177734,0.135742188,0.023333054,-0.022851289,-0.005599443
-0.038574219,-0.984619141,0.137817383,0.021467816,-0.019786971,-0.009729611
-0.047729492,-0.990478516,0.16015625,0.014939485,-0.016989115,-0.014792398
-0.049682617,-0.991577148,0.166748047,0.012408092,-0.001933985,-0.017190561
-0.05859375,-0.993774414,0.167236328,0.015738873,0.038035387,-0.015591786
-0.055664063,-0.991088867,0.16809082,0.021734279,0.047894499,-0.015591786
-0.048828125,-0.987792969,0.161499023,0.027862916,0.044830181,-0.013859779
-0.041870117,-0.993164063,0.161987305,0.040786346,0.02218087,-0.007331449
-0.039550781,-0.983520508,0.176635742,0.042784815,0.008990977,0.001195351
-0.034057617,-0.985839844,0.160766602,0.04118604,0.008058358,0.018382181
-0.042724609,-0.991699219,0.151123047,0.043051277,0.019116551,0.017049868
-0.045898438,-0.99609375,0.15637207,0.04331774,0.029775051,0.002660894
-0.045043945,-0.983642578,0.158935547,0.037588796,0.024445801,-0.004400361
-0.048583984,-0.973022461,0.162719727,0.015872104,0.012721452,-0.004666824
-0.04309082,-0.974487305,0.151977539,-0.001181495,0.009124208,-0.004800055
-0.038696289,-0.985717773,0.156982422,0.006279455,0.00819159,-0.003068049
-0.042480469,-0.997436523,0.17590332,0.019202885,-0.004731841,-0.002934818
-0.046386719,-0.997314453,0.177124023,0.019202885,-0.009528165,0.001062119
-0.051635742,-0.987670898,0.170776367,0.010942548,0.02004917,0.009455688
-0.050415039,-0.983520508,0.16394043,0.002016055,0.038968006,0.016250481
-0.048950195,-0.985473633,0.166381836,-0.004245813,0.065747486,0.01611725
-0.052734375,-0.978393555,0.162841797,-0.022631724,0.07374136,0.004925825
-0.060424805,-0.974121094,0.16015625,-0.02862713,0.082134928,-0.000270193
-0.054077148,-0.966918945,0.155151367,-0.034222842,0.092526965,-0.007597911
-0.045043945,-0.95703125,0.149658203,-0.043415798,0.065614254,-0.011061923
-0.045288086,-0.965698242,0.137939453,-0.041417329,0.057220686,-0.018522873
-0.056152344,-0.975463867,0.148925781,-0.026628662,0.025778113,-0.034377391
-0.059570313,-0.972412109,0.151489258,-0.028360668,6.44839E-05,-0.037841403
-0.054077148,-0.984863281,0.148925781,-0.022098799,-0.018987583,-0.034510622
-0.05090332,-1.000976563,0.15222168,-0.008908907,-0.008595547,-0.034910316
-0.053222656,-1.002929688,0.171875,-0.000248876,0.006726046,-0.034110928
-0.049926758,-1.007324219,0.169189453,1.75865E-05,0.020315632,-0.031845997
-0.052734375,-0.993164063,0.159667969,-0.001048263,0.060285005,-0.019588723
-0.048950195,-0.996337891,0.163085938,1.75865E-05,0.069611192,-0.019588723
-0.027587891,-1.009643555,0.16809082,0.008544386,0.069211498,-0.025184435
-0.020141602,-0.994750977,0.153930664,0.010276392,0.076006291,-0.025983822
-0.026977539,-0.989624023,0.156494141,0.003081905,0.088530028,-0.012127773
-0.041259766,-0.986083984,0.150634766,0.000550511,0.090794959,-0.001602505
-0.040283203,-0.991455078,0.148925781,0.001083436,0.083600472,0.011454156
-0.044921875,-1.00378418,0.154418945,0.011741936,0.081602003,0.007057525
-0.049682617,-0.99987793,0.152709961,0.031726622,0.084133397,-0.00533298
-0.051757813,-0.98840332,0.142944336,0.026663835,0.100920533,-0.014659167
-0.046142578,-0.991333008,0.155639648,0.024931829,0.108647945,-0.019988417
-0.041137695,-0.985229492,0.154052734,0.019069654,0.106249783,-0.023319198
-0.044921875,-0.983764648,0.154418945,0.020268735,0.09732329,-0.018123179
-0.041992188,-0.983032227,0.155029297,0.020668429,0.064948098,-0.009862842
-0.033935547,-0.968505859,0.145629883,0.009477005,0.041366169,-0.004400361
-0.034423828,-0.977172852,0.141723633,0.003481599,0.029641819,0.002660894
-0.028198242,-0.984130859,0.154174805,0.008277923,0.021514714,0.003993207
-0.036132813,-0.987426758,0.16027832,0.014673023,-0.001800753,0.019314799
-0.052734375,-0.992431641,0.157348633,0.016937954,-0.004731841,0.026775749
-0.054321289,-0.989501953,0.155395508,0.018003804,-0.003665991,0.029840067
-0.041381836,-0.994995117,0.173950195,0.022800129,-0.018854352,0.027042211
-0.041625977,-0.976196289,0.167724609,0.009343773,-0.034975332,0.028108061
-0.026489258,-0.983154297,0.162719727,-0.005578126,-0.031244858,0.036901323
-0.021728516,-0.988769531,0.155029297,-0.025696043,-0.000601672,0.056619547
-0.036621094,-0.998046875,0.155029297,-0.021166181,0.036436613,0.053155535
-0.069458008,-0.986450195,0.166381836,-0.004112582,0.045896031,0.044628735
-0.079833984,-0.975219727,0.165649414,0.014006867,0.027643351,0.033970236
-0.062866211,-0.965576172,0.147949219,0.003081905,0.019915939,0.021313268
-0.046875,-0.973876953,0.134277344,0.004014524,0.032839369,0.013585856
-0.051513672,-0.981689453,0.134155273,0.017204417,0.04909358,-0.011994542
-0.063842773,-0.982177734,0.14453125,0.026530603,0.043497868,-0.017457023
-0.060058594,-0.976074219,0.158325195,0.027063528,0.013787302,-0.016924098
-0.057128906,-0.981689453,0.142578125,0.011209011,0.005660196,-0.023052735
-0.036132813,-0.994506836,0.137573242,0.006412686,0.011922064,-0.024917972
-0.039306641,-1.001464844,0.164916992,0.012541323,0.027643351,-0.021853654
-0.049194336,-1.002319336,0.177124023,0.019469348,0.041232937,-0.00853053
-0.052856445,-1.002441406,0.150756836,0.01866996,0.053223749,-0.002535124
-0.050170898,-1.004150391,0.151855469,0.016138567,0.068545342,-0.003068049
-0.043457031,-0.993286133,0.151245117,0.013873636,0.069078267,-0.006132368
-0.046142578,-0.990722656,0.149047852,0.004280986,0.068545342,-0.009063455
-0.049438477,-0.985839844,0.155517578,0.000683743,0.062017011,-0.00533298
-0.040893555,-0.982788086,0.163696289,-0.00278027,0.038035387,0.00972215
-0.033447266,-0.983032227,0.156738281,-0.003846119,0.029775051,0.014918168
-0.031738281,-0.991943359,0.142700195,-0.000515338,0.031640288,0.014518475
-0.059936523,-0.988525391,0.155639648,1.75865E-05,0.044563718,0.001461813
-0.065917969,-0.987060547,0.159667969,-0.00171442,0.050425893,-0.004133899
-0.061645508,-0.98840332,0.143310547,0.005879761,0.059085924,-0.00639883
-0.057006836,-0.981201172,0.147338867,0.011209011,0.049626505,-0.005865905
-0.050537109,-0.983276367,0.150878906,0.01000993,0.022847026,0.000262732
-0.051513672,-0.983886719,0.147216797,0.011608704,0.020848557,0.006258138
-0.052734375,-0.989746094,0.147583008,0.012541323,0.032173213,0.008389838
-0.047973633,-1.000610352,0.151245117,0.01547241,0.041632631,0.001861507
-0.044311523,-1.002807617,0.158935547,0.024532135,0.054955755,-0.00533298
-0.05480957,-0.989746094,0.16003418,0.02613091,0.060018542,-0.005599443
-0.051635742,-0.984619141,0.149291992,0.024931829,0.065747486,-0.002401893
-0.047119141,-0.976074219,0.156860352,0.02826261,0.062949629,-0.000936349
-0.051269531,-0.977172852,0.158569336,0.030127847,0.036703075,-0.003467743
-0.040405273,-0.981811523,0.159667969,0.02080166,0.02431257,0.001461813
-0.042114258,-0.995483398,0.157104492,0.013340711,0.044563718,-0.003334511
-0.042236328,-0.992553711,0.159057617,0.013473942,0.05868623,-0.006132368
-0.059326172,-0.979248047,0.164916992,0.008011461,0.061084392,0.010788
-0.058959961,-0.977172852,0.157348633,0.00148313,0.058552999,0.01611725
-0.047119141,-0.977905273,0.151367188,-0.011307069,0.063082861,0.013452625
-0.048706055,-0.974609375,0.144287109,-0.01676955,0.068811804,0.01185385
-0.060668945,-0.978515625,0.146728516,-0.015970162,0.066013948,0.003993207
-0.067504883,-0.984863281,0.150390625,-0.008642444,0.055088986,-0.000403424
-0.073120117,-0.98840332,0.14074707,0.006279455,0.028975663,-0.011861311
-0.05456543,-0.992919922,0.144775391,0.014806254,0.016185464,-0.018922567
-0.04699707,-0.992553711,0.143432617,0.026930297,0.009923596,-0.027316135
-0.041381836,-0.993774414,0.150756836,0.029195228,0.01685162,-0.02465151
-0.045654297,-0.991210938,0.153564453,0.016671492,0.038168619,-0.014792398
-0.051513672,-0.990234375,0.151000977,0.011608704,0.048427424,-0.016524404
-0.049194336,-0.986450195,0.154541016,0.014806254,0.050958818,-0.021320729
-0.053710938,-0.980834961,0.154052734,0.020535198,0.047095112,-0.018389642
-0.061279297,-0.982666016,0.149536133,0.024398904,0.034171682,-0.011328386
-0.061157227,-0.985595703,0.146606445,0.02506506,0.025245188,-0.013460086
-0.059326172,-0.984619141,0.146850586,0.026663835,0.005260502,-0.035310009
-0.050537109,-0.986572266,0.162475586,0.027596453,-0.001800753,-0.039839871
-0.044555664,-0.989257813,0.162475586,0.025597985,0.015119614,-0.040506028
-0.034545898,-0.990234375,0.157958984,0.01760411,0.050958818,-0.029714297
-0.037231445,-0.989501953,0.161132813,0.013473942,0.056421299,-0.025983822
-0.034179688,-0.987548828,0.16418457,0.011608704,0.053756674,-0.024518279
-0.043823242,-0.9765625,0.157714844,0.00681238,0.059352386,-0.019455492
-0.052124023,-0.974975586,0.150756836,-0.012372919,0.06734626,-0.001868968
-0.057250977,-0.987792969,0.150634766,-0.018368325,0.055888374,-0.000136962
-0.046142578,-0.999145508,0.154663086,-0.010640913,0.012987914,-0.017856717
-0.037597656,-1.000244141,0.157714844,-0.003313194,0.003128802,-0.017856717
-0.040893555,-1.001586914,0.156494141,-0.000781801,0.023912876,-0.002668355
-0.033813477,-0.989013672,0.157714844,-0.008908907,0.054689293,0.016516943
-0.046142578,-0.987060547,0.150512695,-0.012106456,0.06734626,0.016383712
-0.046875,-0.984863281,0.139038086,-0.020500025,0.070410579,0.004659363
-0.051025391,-0.982788086,0.141967773,-0.015836931,0.060151773,0.003327051
-0.048461914,-0.9921875,0.15234375,0.006679149,0.024445801,0.001861507
-0.047729492,-0.998291016,0.161010742,0.017870573,0.010056827,-0.000536655
-0.042480469,-0.997436523,0.156494141,0.024798597,0.018583626,0.000395963
-0.034667969,-0.996459961,0.151367188,0.012141629,0.062549936,0.011587387
-0.049438477,-0.999389648,0.155395508,0.009610236,0.083467241,0.016383712
-0.049072266,-1.000610352,0.150756836,0.01866996,0.099987914,0.016650175
-0.0546875,-0.993041992,0.139404297,0.023066591,0.092127271,0.012786469
-0.05456543,-0.992675781,0.138793945,0.029061997,0.060551467,0.001461813
-0.061767578,-0.985839844,0.151611328,0.034124784,0.04256525,0.000129501
-0.057373047,-0.986938477,0.162109375,0.04118604,0.014453458,0.010521538
-0.039550781,-0.977416992,0.156494141,0.036522946,0.032173213,0.011187694
-0.044799805,-0.981445313,0.15246582,0.028529072,0.057886842,0.009588919
-0.049682617,-0.982177734,0.149902344,0.014406561,0.101053764,-0.000136962
-0.056884766,-0.980834961,0.160888672,0.015339179,0.088929721,-0.002401893
-0.047485352,-0.974853516,0.153442383,0.021734279,0.077871528,0.000662426
-0.0390625,-0.966064453,0.148925781,0.032792472,0.044830181,0.013319394
-0.044555664,-0.967407227,0.151855469,0.018003804,0.020848557,0.002127969
-0.051757813,-0.978515625,0.147949219,0.007212074,0.026843963,-0.000270193
-0.044189453,-0.9921875,0.151489258,-0.00278027,0.056021605,-0.005199749
-0.045288086,-0.997924805,0.159179688,-0.00064857,0.066280411,-0.005066518
-0.056274414,-0.99621582,0.160766602,0.018536729,0.064281942,0.002794126
-0.064086914,-0.991943359,0.155029297,0.025597985,0.05442283,0.00759045
-0.063232422,-0.996582031,0.155639648,0.031460159,0.053490211,0.014651706
-0.041503906,-0.98828125,0.138305664,0.029328459,0.058020074,0.011054462
-0.044921875,-0.990234375,0.14453125,0.026397372,0.064681636,0.007856913
-0.051391602,-0.977172852,0.145874023,0.022533666,0.059085924,0.005059057
-0.050415039,-0.975830078,0.144287109,0.002415749,0.043098175,0.005591982
-0.045654297,-0.983032227,0.148803711,-0.004911969,0.032039982,0.009988613
-0.041381836,-0.987792969,0.153686523,-0.007443363,0.023912876,0.020513881
-0.037841797,-0.990600586,0.164550781,-0.006111051,0.029775051,0.023444968
-0.044677734,-0.986572266,0.160522461,-0.014104925,0.055621911,0.023844662
-0.058227539,-0.98046875,0.149047852,-0.019567406,0.070677041,0.02690898
-0.076293945,-0.986328125,0.160644531,-0.008509213,0.060684698,0.025976361
-0.065795898,-0.991943359,0.146118164,0.023466285,0.036836306,0.006258138
-0.064331055,-0.995361328,0.141235352,0.031326928,0.032572907,-0.00959638
-0.061645508,-0.983398438,0.145874023,0.031326928,0.021781176,-0.02358566
-0.051513672,-0.986572266,0.139038086,0.028662303,0.015519308,-0.018922567
-0.040649414,-0.988769531,0.155517578,0.033058934,0.002995571,0.004659363
-0.036865234,-0.994995117,0.168212891,0.034258015,0.002595877,0.012786469
-0.046875,-0.991455078,0.179931641,0.036256484,0.036969538,0.022245887
-0.06652832,-0.983154297,0.157470703,0.026397372,0.062416705,0.02690898
-0.060668945,-0.983642578,0.143432617,-0.001847651,0.101986383,0.030639455
-0.056640625,-0.990478516,0.145141602,0.005613299,0.083067547,0.019314799
-0.063354492,-0.983398438,0.152709961,0.017737342,0.052157899,0.012386775
-0.065185547,-0.973632813,0.156005859,0.025597985,0.005260502,0.011720619
-0.059936523,-0.965942383,0.149047852,0.005480067,0.006992508,0.016383712
-0.04699707,-0.970825195,0.144165039,-0.013039075,0.036036919,0.010121844
-0.052978516,-0.975219727,0.154052734,-0.011307069,0.043764331,0.005325519
-0.078979492,-0.96472168,0.170043945,-0.01037445,0.041366169,0.001461813
-0.076538086,-0.965454102,0.152709961,-0.020233562,0.030041513,0.001994738
-0.05456543,-0.980834961,0.141357422,-0.024097268,0.021781176,-0.009329917
-0.044921875,-0.996704102,0.157592773,-0.017568937,0.008591283,-0.021720423
-0.051391602,-0.993530273,0.163696289,-0.001847651,-0.006330616,-0.031845997
-0.065307617,-0.981079102,0.156494141,0.001216668,0.002729109,-0.022120116
-0.064086914,-0.984130859,0.163208008,-0.008642444,0.0351043,-0.000669887
-0.05847168,-0.998046875,0.136474609,-0.014771081,0.04256525,0.000662426
-0.055908203,-1.003051758,0.135009766,-0.004245813,0.048960349,-0.00746468
-0.060668945,-0.991333008,0.153808594,0.009210542,0.029242126,-0.008663761
-0.060791016,-0.981201172,0.156738281,0.006545917,0.022980257,-0.00426713
-0.056152344,-0.978271484,0.143432617,-0.007843057,0.027909813,0.000529194
-0.051269531,-0.982910156,0.145751953,-0.013572,0.037236,-0.000669887
-0.050170898,-0.989746094,0.166748047,-0.001314726,0.053090518,-0.010528998
-0.055053711,-0.988769531,0.165771484,0.007611767,0.057220686,-0.011861311
-0.067382813,-0.970947266,0.147705078,0.005879761,0.051624974,-0.006532061
-0.066650391,-0.972045898,0.137939453,0.000284049,0.050825587,-0.004933286
-0.063964844,-0.980102539,0.137451172,-0.003313194,0.037502463,-0.012660698
-0.053344727,-0.992675781,0.151123047,0.01547241,0.016451927,-0.028648447
-0.054199219,-0.986206055,0.158203125,0.022400435,0.00925744,-0.027715829
-0.061035156,-0.985595703,0.15246582,0.017204417,0.023513182,-0.007731142
-0.054931641,-1.002929688,0.141235352,0.013473942,0.04043355,-0.002002199
-0.052734375,-1.004882813,0.154174805,0.028662303,0.048160962,-0.010262536
-0.049926758,-0.992675781,0.158081055,0.035590328,0.038035387,-0.014392704
-0.048217773,-0.986938477,0.155761719,0.029195228,0.032173213,-0.009729611
-0.047485352,-0.984619141,0.144165039,0.016405029,0.041899093,-0.003467743
-0.036987305,-0.982421875,0.147460938,-0.004911969,0.069344729,0.003327051
-0.059448242,-0.984985352,0.143066406,-0.007976288,0.074407516,-0.001336043
-0.07824707,-0.98046875,0.145019531,0.00148313,0.056954224,-0.005865905
-0.080932617,-0.969360352,0.144287109,0.001216668,0.035370763,-0.010795461
-0.064331055,-0.975708008,0.138916016,-0.002647038,0.001396796,-0.014525936
-0.046875,-0.989990234,0.143066406,-0.000248876,0.00073064,-0.017323792
-0.048828125,-0.986572266,0.15625,0.01000993,0.014053764,-0.022653041
-0.055908203,-0.990844727,0.162231445,0.014673023,0.020448864,-0.018656104
-0.063720703,-0.98034668,0.152587891,0.016005335,0.041099706,-0.012261005
-0.064331055,-0.985229492,0.144287109,0.015738873,0.051491743,-0.011195155
-0.058349609,-0.989501953,0.144165039,0.029861384,0.05868623,-0.016524404
-0.061279297,-0.985839844,0.146484375,0.039720496,0.055621911,-0.023185966
-0.060791016,-0.976074219,0.143798828,0.065300894,0.043764331,-0.034643853
-0.061401367,-0.976196289,0.146972656,0.073028306,0.031640288,-0.033844466
-0.050415039,-0.991577148,0.143798828,0.083820037,0.022847026,-0.029447835
-0.048828125,-0.9921875,0.14453125,0.095277924,0.031107363,-0.026383516
-0.041503906,-0.983398438,0.162597656,0.091147755,0.038834775,-0.022786273
-0.051757813,-0.983276367,0.165527344,0.079956331,0.056687761,-0.029314603
-0.048583984,-0.993530273,0.156738281,0.060238107,0.086531559,-0.034910316
-0.046630859,-0.995361328,0.150878906,0.048114064,0.08773064,-0.032112459
-0.052124023,-0.998657227,0.159790039,0.040519884,0.060151773,-0.016924098
-0.044067383,-0.99230957,0.157836914,0.038521415,0.036969538,-0.011994542
-0.035400391,-0.985839844,0.165405273,0.012674554,0.007258971,-0.005199749
-0.027587891,-0.992919922,0.155761719,-0.004379044,0.012188527,-0.00106958
-0.033447266,-0.994628906,0.148071289,-0.03182468,0.064948098,0.001595044
-0.058837891,-0.990234375,0.161865234,-0.035821617,0.083067547,-0.000803118
-0.063720703,-0.982788086,0.169677734,-0.029426518,0.067612723,0.001062119
-0.063354492,-0.978759766,0.149047852,-0.0199671,0.036436613,0.004925825
-0.057739258,-0.986694336,0.140380859,-0.015570469,0.027243657,0.004659363
-0.05090332,-0.985229492,0.140380859,-0.00824275,0.018583626,-0.009862842
-0.049194336,-0.986083984,0.151367188,0.004414217,0.010722983,-0.015725017
-0.05480957,-0.986083984,0.160522461,0.009477005,0.010722983,-0.012261005
-0.057006836,-0.989868164,0.16394043,0.008411155,0.015252845,0.000395963
-0.048828125,-0.995361328,0.162231445,0.011475473,0.022447332,0.003060588
-0.048828125,-0.992919922,0.153320313,0.015872104,0.037369231,-0.00213543
-0.04699707,-0.985473633,0.159423828,0.014006867,0.036703075,-0.002668355
-0.045288086,-0.977539063,0.158935547,0.007478536,0.018317164,0.007457219
-0.046264648,-0.986694336,0.157958984,0.002016055,0.007525433,0.007190757
-0.051147461,-0.987792969,0.155395508,-0.001980882,0.007525433,0.004259669
-0.0546875,-0.980834961,0.158813477,-0.007043669,0.010323289,0.003193819
-0.050292969,-0.977172852,0.166259766,-0.015970162,0.016984851,-0.004000668
-0.048583984,-0.968383789,0.151855469,-0.022764956,0.021781176,0.000395963
-0.049194336,-0.973022461,0.158569336,-0.046346885,0.033771988,0.000129501
-0.045654297,-0.984863281,0.147094727,-0.057138616,0.0393677,-0.004666824
-0.05090332,-0.990478516,0.154052734,-0.048345354,0.033905219,-0.007997605
-0.060302734,-0.990966797,0.15222168,-0.02862713,0.018583626,0.002527663
-0.061767578,-0.991577148,0.148681641,-0.0093086,0.023912876,-0.000270193
-0.059692383,-0.99987793,0.148681641,0.01547241,0.038168619,-0.008663761
-0.0546875,-1.007568359,0.157592773,0.039587265,0.046162493,-0.011195155
-0.050048828,-1.00390625,0.156005859,0.09700993,0.055755142,-0.013593317
-0.053344727,-0.999755859,0.139038086,0.122590328,0.065614254,-0.014792398
-0.061279297,-0.997680664,0.146606445,0.17002065,0.078537685,-0.023852123
-0.056518555,-0.975463867,0.132080078,0.18400993,0.070410579,-0.029714297
-0.053833008,-0.977172852,0.135131836,0.199731216,0.060418236,-0.024518279
-0.049316406,-0.970947266,0.159545898,0.199464754,0.05229113,-0.028781678
-0.051879883,-0.974243164,0.155395508,0.187340711,0.061350855,-0.040639259
-0.052734375,-0.966308594,0.159423828,0.184542855,0.074274285,-0.038907253
-0.053222656,-0.966796875,0.165893555,0.18294408,0.068545342,-0.026117054
-0.047485352,-0.976318359,0.145507813,0.163225856,0.056288067,-0.050365139
-0.041137695,-0.985839844,0.166015625,0.154565826,0.05122528,-0.065153807
-0.04296875,-0.98449707,0.161132813,0.127253421,0.050425893,-0.080208937
-0.039916992,-0.985717773,0.169921875,0.11419676,0.053223749,-0.073414144
-0.030883789,-0.99230957,0.202270508,0.103405029,0.030041513,-0.046234971
-0.029907227,-0.987670898,0.182861328,0.095677617,0.021381482,-0.032911847
-0.026245117,-0.996337891,0.187866211,0.064767969,0.023113489,-0.01932226
-0.021850586,-0.998291016,0.186767578,0.054375933,0.046961881,-0.011594848
-0.030151367,-0.990966797,0.187744141,0.037722028,0.093592815,0.0129197
-0.043945313,-0.990722656,0.186279297,0.033192165,0.095058358,0.018781874
-0.065429688,-0.99597168,0.182495117,0.045316208,0.058419767,0.007990144
-0.056274414,-1.000732422,0.178466797,0.061437188,0.034837838,-0.004400361
-0.035644531,-0.99987793,0.17175293,0.091414218,-0.002067216,-0.018123179
-0.020263672,-0.997436523,0.173217773,0.103005336,-0.003266297,-0.023319198
-0.033691406,-0.991455078,0.202026367,0.126187571,0.002995571,-0.018656104
-0.033813477,-0.984863281,0.200683594,0.136179914,0.008058358,-0.010795461
-0.044433594,-0.995361328,0.200805664,0.170953268,0.039234469,0.012653237
-0.046264648,-0.997192383,0.189941406,0.19799921,0.062816398,0.014784937
-0.046386719,-0.984130859,0.193359375,0.236103345,0.092793427,0.002127969
-0.054321289,-0.976074219,0.204833984,0.2538231,0.093459584,-0.009196686
-0.066894531,-0.976806641,0.202148438,0.285532135,0.087197715,-0.021587191
-0.053100586,-0.977661133,0.213134766,0.300187572,0.074540747,-0.021720423
-0.040893555,-0.983886719,0.208862305,0.334960925,0.035503994,-0.023052735
-0.037475586,-0.980102539,0.214599609,0.347084968,0.02218087,-0.027049672
-0.0390625,-0.979003906,0.208496094,0.362539792,0.025778113,-0.032512153
-0.0234375,-0.979858398,0.244018555,0.371599517,0.034304913,-0.028515216
-0.027954102,-0.978149414,0.237670898,0.395980834,0.081202309,-0.01825641
-0.038574219,-0.971679688,0.221557617,0.401310083,0.140756674,-0.020521342
-0.060058594,-0.975952148,0.239013672,0.406506102,0.151548404,-0.030247222
-0.064697266,-0.967773438,0.228881836,0.443677618,0.118107363,-0.042238034
-0.072998047,-0.968139648,0.225952148,0.473388184,0.088929721,-0.046901127
-0.047119141,-0.971679688,0.246826172,0.543734279,0.011122677,-0.065287038
-0.038574219,-0.964599609,0.275756836,0.560254953,-0.022051902,-0.074346763
-0.038574219,-0.966308594,0.296020508,0.559722028,-0.022318365,-0.063688263
-0.027587891,-0.956542969,0.303344727,0.552794004,0.016318695,-0.057426395
-0.001464844,-0.947143555,0.310546875,0.522017587,0.110513182,-0.023985354
-0.010986328,-0.960449219,0.334838867,0.490308552,0.163805679,-0.005865905
-0.03112793,-0.962402344,0.333374023,0.472322334,0.178061421,-0.010795461
-0.042602539,-0.974243164,0.337158203,0.46539431,0.173398328,-0.02465151
-0.041381836,-0.966552734,0.349365234,0.468458629,0.145552999,-0.027449366
-0.041870117,-0.950805664,0.353759766,0.454869042,0.08773064,-0.022253348
-0.058349609,-0.940429688,0.375366211,0.410902733,0.056288067,-0.018123179
-0.042724609,-0.954956055,0.391357422,0.399444846,0.067612723,-0.022120116
-0.032470703,-0.954223633,0.376953125,0.399178383,0.11344427,-0.024251816
-0.025390625,-0.959960938,0.376708984,0.410236576,0.130364637,-0.02145396
-0.05065918,-0.951904297,0.403320313,0.403575014,0.114643351,-0.015991479
-0.05871582,-0.938232422,0.408203125,0.387986959,0.103318695,-0.018789335
-0.064941406,-0.928955078,0.410522461,0.352813912,0.095324821,-0.020787804
-0.033325195,-0.943725586,0.417114258,0.356411155,0.091860809,-0.017457023
-0.010986328,-0.94543457,0.426513672,0.37519676,0.066813335,0.001595044
-0.05078125,-0.931274414,0.434082031,0.373597985,0.05975208,0.001994738
-0.046630859,-0.932128906,0.421875,0.340556638,0.07480721,-0.001336043
-0.044433594,-0.924926758,0.412353516,0.331630144,0.095324821,0.011454156
-0.039428711,-0.931884766,0.414306641,0.346418812,0.102652539,0.066345427
-0.034545898,-0.944091797,0.434692383,0.378261079,0.096124208,0.076071308
-0.057739258,-0.940063477,0.440429688,0.435950206,0.077871528,0.055686928
-0.061767578,-0.936523438,0.43737793,0.469524478,0.080935847,0.042763498
-0.042602539,-0.933837891,0.423461914,0.548397373,0.085199247,0.024510818
-0.038208008,-0.91394043,0.440673828,0.608884356,0.063615786,0.02797483
-0.0703125,-0.903686523,0.474609375,0.621674555,0.053490211,0.030506224
-0.056030273,-0.904907227,0.488647461,0.647388185,0.058419767,-0.00213543
-0.063354492,-0.909545898,0.497314453,0.692153881,0.073341666,-0.058891939
-0.053955078,-0.900634766,0.495605469,0.6994816,0.071476429,-0.068751051
-0.055297852,-0.904052734,0.522460938,0.725594923,0.010856214,-0.103924098
-0.055175781,-0.888427734,0.537719727,0.729858323,-0.049097844,-0.126839872
-0.043701172,-0.883178711,0.561889648,0.718000742,-0.067350524,-0.115381985
-0.060668945,-0.865600586,0.602905273,0.6909548,-0.069348992,-0.074879688
-0.036254883,-0.866088867,0.602050781,0.65977869,-0.079607798,-0.080741862
-0.014160156,-0.8984375,0.592041016,0.636729685,-0.049097844,-0.123908784
-0.018798828,-0.895385742,0.618652344,0.636329992,-0.03364302,-0.13416759
-0.02734375,-0.876098633,0.614746094,0.614480068,-0.024450064,-0.122443241
-0.021728516,-0.863647461,0.651855469,0.588366745,-0.026714995,-0.106055798
-0.009521484,-0.840209961,0.6484375,0.547464754,-0.048165225,-0.084872031
-0.013549805,-0.861328125,0.659790039,0.539204417,-0.068416374,-0.073680607
-0.006835938,-0.868896484,0.669799805,0.545732748,-0.076277017,-0.065953195
-0.010253906,-0.854003906,0.665039063,0.536006867,-0.052828319,-0.06542027
-0.005493164,-0.828979492,0.641357422,0.481115596,0.057886842,-0.046368202
0.014160156,-0.831420898,0.649291992,0.452204417,0.110113489,-0.024118585
0.004882813,-0.838378906,0.65612793,0.444477005,0.152614254,-0.001735737
-0.017211914,-0.82800293,0.677368164,0.466859854,0.150082861,-0.00533298
-0.010131836,-0.779907227,0.657714844,0.464061998,0.14675208,-0.011061923
-0.025756836,-0.842407227,0.67199707,0.490175321,0.100387608,0.0043929
-0.01953125,-0.858764648,0.68347168,0.517354494,0.080402922,0.020647112
-0.011352539,-0.817749023,0.684448242,0.56638359,0.053490211,0.033037617
-0.014282227,-0.802490234,0.675170898,0.577841477,0.040700012,0.017716025
-0.015380859,-0.789916992,0.676269531,0.633398904,0.068012417,-0.017057329
-0.033691406,-0.782592773,0.704223633,0.672302427,0.101320227,-0.015458554
-0.032348633,-0.766235352,0.699951172,0.674167664,0.117707669,-0.011328386
-0.032348633,-0.760864258,0.706665039,0.664575015,0.163139522,0.0043929
-0.041625977,-0.750488281,0.729492188,0.632865979,0.162206904,-0.005865905
-0.044799805,-0.742553711,0.740600586,0.623806255,0.158209967,-0.014392704
-0.049682617,-0.731323242,0.737304688,0.623673024,0.126500931,-0.028781678
-0.052490234,-0.733276367,0.749145508,0.617544387,0.079470303,-0.031446303
-0.052124023,-0.735351563,0.756835938,0.603688338,-0.015523571,-0.050098677
-0.04309082,-0.731933594,0.762451172,0.604221263,-0.03577472,-0.061423332
-0.019042969,-0.717651367,0.802246094,0.605153881,-0.014990646,-0.067951663
-0.013061523,-0.705322266,0.830444336,0.601023713,0.006859277,-0.070483057
-0.013549805,-0.696411133,0.816772461,0.58357042,0.043764331,-0.057426395
-0.016601563,-0.700683594,0.82434082,0.573578077,0.058552999,-0.042238034
-0.02746582,-0.678344727,0.828735352,0.532276393,0.081868466,-0.026516747
-0.025878906,-0.688110352,0.815551758,0.518953269,0.102519308,-0.023718891
-0.037475586,-0.672973633,0.827880859,0.525348368,0.089729109,-0.023852123
-0.033813477,-0.684814453,0.837280273,0.536806255,0.04469695,-0.03104661
-0.045654297,-0.680664063,0.877441406,0.565051278,-0.048031994,-0.044636196
-0.045898438,-0.666503906,0.874023438,0.565184509,-0.071480692,-0.043836809
-0.017822266,-0.669189453,0.868164063,0.576509165,-0.065085593,-0.02038811
-0.009887695,-0.661865234,0.877929688,0.589699057,-0.046433219,-0.010795461
-0.02722168,-0.66418457,0.911743164,0.599291707,-0.013125409,-0.027049672
-0.018066406,-0.656616211,0.903564453,0.612614831,0.018317164,-0.045169121
0.00793457,-0.645263672,0.893676758,0.615146224,0.038701544,-0.042637727
0.01550293,-0.63684082,0.904296875,0.632333054,0.115842432,-0.022386579
-0.01159668,-0.606933594,0.937744141,0.623806255,0.145020074,-0.00320128
-0.022338867,-0.604003906,0.953735352,0.592896607,0.145153305,0.030905917
-0.041259766,-0.594970703,0.964355469,0.593695995,0.133029262,0.029840067
-0.049438477,-0.616821289,0.933349609,0.654849134,0.148217623,0.053954922
-0.008056641,-0.585083008,0.896484375,0.665640865,0.189919002,0.055420466
-0.005615234,-0.584472656,0.916748047,0.730524479,0.321684699,0.027441905
-0.008911133,-0.560302734,0.944580078,0.758902733,0.364318696,0.022512349
-0.0234375,-0.515258789,0.919067383,0.759435658,0.396160962,0.037567479
-0.041748047,-0.545166016,0.911254883,0.777688338,0.408551468,0.059817097
-0.055786133,-0.530273438,0.931884766,0.822853729,0.374311039,0.05155676
-0.082519531,-0.525756836,0.9375,0.821521416,0.331543811,0.032904386
-0.1171875,-0.491455078,0.901855469,0.852164601,0.231753611,0.001195351
-0.098388672,-0.494750977,0.929199219,0.884539793,0.098655602,-0.013460086
-0.089355469,-0.488525391,0.930297852,0.872682213,0.053490211,-0.022786273
-0.086181641,-0.466796875,0.94128418,0.800337649,-0.005397997,-0.037708172
-0.076171875,-0.453369141,0.959228516,0.757836883,-0.031244858,-0.043437115
-0.061767578,-0.411865234,0.984985352,0.703611768,-0.081339804,-0.041305415
-0.050292969,-0.419799805,0.997558594,0.681495382,-0.105454659,-0.037708172
-0.053955078,-0.423828125,1.008544922,0.636862917,-0.137163694,-0.049565752
-0.063110352,-0.412475586,1.022216797,0.615679149,-0.156348993,-0.064754113
-0.058837891,-0.40246582,1.036743164,0.626204417,-0.227760938,-0.065553501
-0.05480957,-0.374633789,1.05871582,0.65764699,-0.356062622,-0.025317666
-0.015625,-0.351928711,1.06237793,0.66084454,-0.410287737,-0.000936349
0.004882813,-0.352050781,1.072143555,0.645656179,-0.390835976,0.036768092
0.01965332,-0.353393555,1.096313477,0.630601048,-0.326352056,0.050624141
0.013061523,-0.350830078,1.089477539,0.596493851,-0.1388957,0.052089685
0.00390625,-0.348388672,1.091186523,0.576509165,-0.055226481,0.047693054
-0.015258789,-0.343017578,1.104125977,0.55985526,-0.013391871,0.058484784
-0.026489258,-0.322753906,1.083374023,0.566916515,-0.048031994,0.086596576
-0.007568359,-0.315795898,1.102050781,0.623539793,-0.140361244,0.150947265
0.001953125,-0.307373047,1.158813477,0.656447909,-0.204179008,0.148815565
-0.009277344,-0.315551758,1.116943359,0.65764699,-0.157281611,0.117772686
-0.022583008,-0.297851563,1.096679688,0.657913453,-0.102923265,0.098187694
0.009155273,-0.284423828,1.113037109,0.670037496,0.065214561,0.013852319
0.012695313,-0.285644531,1.098022461,0.674567358,0.111978726,-0.021720423
-0.012451172,-0.26550293,1.103149414,0.688156944,0.16393891,-0.083006793
-0.012939453,-0.252563477,1.104736328,0.698149287,0.165404454,-0.096862842
0.001098633,-0.212646484,1.10168457,0.713870574,0.170067547,-0.109386579
-0.011474609,-0.21875,1.133789063,0.701480068,0.102252845,-0.089668355
-0.020751953,-0.197509766,1.075805664,0.696150819,-0.042569513,-0.032778616
-0.026123047,-0.192993164,1.096801758,0.712005336,-0.110517446,-0.016924098
-0.028320313,-0.167480469,1.101806641,0.742914984,-0.207909483,-0.030113991
-0.01171875,-0.172973633,1.071289063,0.745313146,-0.199782377,-0.037841403
0.01159668,-0.178955078,1.078125,0.733588797,-0.179397997,-0.032645384
-0.004394531,-0.146484375,1.100830078,0.736919578,-0.174068748,-0.04503589
-0.011474609,-0.125732422,1.104492188,0.765963989,-0.195385746,-0.064754113
-0.008056641,-0.09375,1.109375,0.786348369,-0.231091719,-0.059424864
-0.007324219,-0.096923828,1.096313477,0.771026776,-0.230425562,-0.06222272
0.013793945,-0.090820313,1.095825195,0.6994816,-0.199116221,-0.044502965
0.054321289,-0.093261719,1.12097168,0.620209012,-0.109318365,-0.04183834
0.063598633,-0.07824707,1.142822266,0.581438721,-0.080140723,-0.048100208
0.063842773,-0.050537109,1.126098633,0.51588895,-0.019254046,-0.057426395
0.008056641,-0.059570313,1.150024414,0.443144693,0.013520839,-0.041172184
-0.009155273,-0.035766602,1.150512695,0.411968582,0.030174744,-0.035976165
0.01184082,-0.002075195,1.175415039,0.398645458,0.094258971,-0.052496839
0.059814453,-0.025878906,1.151000977,0.397046684,0.093459584,-0.067951663
0.062133789,-0.028076172,1.148071289,0.377461691,0.079470303,-0.074213531
0.045410156,-0.021728516,1.141235352,0.354012993,0.083067547,-0.051430989
0.029052734,0.019165039,1.151367188,0.349483131,0.098122677,-0.043437115
0.031005859,0.02355957,1.172851563,0.356144693,0.177395265,-0.042504496
0.033081055,0.004760742,1.144042969,0.362539792,0.273987915,-0.061823026
0.002807617,0.015136719,1.124755859,0.395714371,0.219496337,-0.045702046
-0.009277344,0.027099609,1.143432617,0.432752656,0.097989446,-0.020521342
0.004882813,0.022216797,1.146240234,0.437548981,0.070677041,-0.017057329
0.011474609,0.032592773,1.133666992,0.452337648,0.095591283,-0.035842934
0.008178711,0.048950195,1.137939453,0.468458629,0.104517777,-0.050365139
-0.009033203,0.041015625,1.129882813,0.470190635,0.081735234,-0.053162995
-0.008300781,0.059082031,1.134765625,0.461397373,0.054822524,-0.051963914
0.005249023,0.064575195,1.1484375,0.429555106,-0.00353276,-0.041438646
0.025024414,0.06262207,1.14465332,0.419296301,0.019782708,-0.046368202
0.034912109,0.075805664,1.124145508,0.39984454,0.145819461,-0.051830683
0.021362305,0.083129883,1.107788086,0.396247296,0.204707669,-0.052896533
0.001464844,0.081542969,1.105712891,0.422227388,0.272522371,-0.071149213
0.006835938,0.082519531,1.109375,0.439547449,0.259598941,-0.076744925
-0.003540039,0.126342773,1.130004883,0.494172258,0.13822528,-0.06328857
0.000610352,0.13269043,1.124023438,0.518287112,0.077205372,-0.050631602
-0.01953125,0.117675781,1.094970703,0.527346837,0.045629568,-0.039440178
-0.016967773,0.108154297,1.092895508,0.525081906,0.043897562,-0.048366671
-0.019287109,0.141357422,1.108276367,0.532942549,0.020182401,-0.079143087
-0.021728516,0.141845703,1.106689453,0.541202886,0.002062953,-0.082074175
-0.017211914,0.160888672,1.079223633,0.564784815,-0.027914077,-0.054095614
-0.01184082,0.167602539,1.090454102,0.570913453,-0.049497538,-0.031845997
0.007446289,0.175170898,1.102050781,0.579307021,-0.106920202,-0.003867436
0.019897461,0.180297852,1.109130859,0.573711309,-0.123574107,-0.007864374
0.017578125,0.206176758,1.090820313,0.590098751,-0.111982989,-0.004400361
0.013183594,0.195922852,1.083740234,0.60288895,-0.061088656,0.001195351
0.000366211,0.2109375,1.105102539,0.605287113,-0.047898763,-0.006265599
-0.003051758,0.212646484,1.109375,0.607552044,-0.059756343,-0.025317666
0.008300781,0.241943359,1.100341797,0.622340711,-0.07121423,-0.042637727
0.012207031,0.252319336,1.09387207,0.627270267,-0.06375328,-0.044769427
0.032836914,0.268310547,1.12097168,0.623673024,-0.045234138,-0.042104803
0.037719727,0.276733398,1.115722656,0.610749593,-0.025116221,-0.041571878
0.023681641,0.271484375,1.123779297,0.587300895,0.027243657,-0.047966977
0.008056641,0.302856445,1.127807617,0.586101814,0.036569844,-0.059558095
-0.002441406,0.335571289,1.121337891,0.594628613,0.015519308,-0.048899596
0.017822266,0.326049805,1.101074219,0.598492319,-0.010460784,-0.034643853
0.014892578,0.332763672,1.098388672,0.59422892,-0.044301519,-0.038374328
0.023925781,0.330078125,1.106567383,0.562653116,-0.080407185,-0.048366671
0.040527344,0.362548828,1.096679688,0.551195229,-0.093197385,-0.03864079
0.043701172,0.380981445,1.094604492,0.528412687,-0.114514383,-0.003734205
0.023681641,0.35925293,1.062866211,0.534541324,-0.095329084,-0.012261005
0.018676758,0.374145508,1.072509766,0.556924172,-0.049097844,-0.040905721
0.026245117,0.379516602,1.060546875,0.583170727,-0.041237201,-0.044769427
0.022338867,0.365112305,1.050170898,0.614213606,-0.027914077,-0.0783437
0.032958984,0.393798828,1.070678711,0.611149287,-0.03364302,-0.069550438
0.036010742,0.384521484,1.052856445,0.605420344,-0.044035057,-0.082207406
0.023071289,0.393432617,1.051879883,0.597160007,-0.048831381,-0.102058861
0.026489258,0.404418945,1.054321289,0.584503039,-0.074811473,-0.130836809
0.034301758,0.439575195,1.052490234,0.57491039,-0.089600141,-0.13203589
0.035766602,0.446411133,1.049804688,0.571446378,-0.09053276,-0.122176778
0.019042969,0.445068359,1.032836914,0.578907327,-0.084404123,-0.117380453
0.029541016,0.461303711,1.022949219,0.58357042,-0.074145317,-0.118446303
0.024902344,0.47265625,1.016967773,0.6124816,-0.054427093,-0.109653041
0.037719727,0.509521484,1.027099609,0.628202886,-0.057358181,-0.108853654
0.038696289,0.504760742,1.036254883,0.648320803,-0.076543479,-0.089801587
0.052246094,0.496826172,0.997680664,0.648853728,-0.077476098,-0.083539718
0.054077148,0.493041992,1.005249023,0.646322335,-0.030578701,-0.063022107
0.042724609,0.499145508,0.998168945,0.64259186,0.026710732,-0.083539718
0.052490234,0.526367188,1.002319336,0.633798598,0.035503994,-0.069417207
0.05065918,0.526855469,1.000366211,0.617011462,0.028442738,-0.056227314
0.032836914,0.517700195,0.977050781,0.568115596,0.041366169,-0.040905721
0.042114258,0.53125,0.958618164,0.545732748,0.069344729,-0.035709703
0.05065918,0.531982422,0.967407227,0.52441575,0.124768925,-0.030113991
0.049438477,0.549316406,0.964111328,0.52228405,0.147951161,-0.027049672
0.038574219,0.553833008,0.968017578,0.521351431,0.170467241,-0.018789335
0.032836914,0.568359375,0.936523438,0.529478537,0.18538914,-0.015458554
0.033447266,0.581176758,0.939941406,0.547331523,0.190185464,-0.012261005
0.03125,0.584350586,0.946044922,0.561187572,0.165670916,-0.010262536
0.021972656,0.584960938,0.950439453,0.563452503,0.149283473,-0.010129305
0.01171875,0.594726563,0.946411133,0.562120191,0.129964944,0.003460282
0.030517578,0.60144043,0.941772461,0.559588797,0.125435081,0.00759045
0.038452148,0.618164063,0.930053711,0.562919578,0.132496337,-0.004000668
0.044433594,0.631958008,0.918823242,0.562253422,0.142088986,-0.009463149
0.03112793,0.637695313,0.919555664,0.580905796,0.158076735,-0.003600974
0.017944336,0.654785156,0.903930664,0.585035964,0.164072141,0.007457219
0.012207031,0.655883789,0.911621094,0.588233514,0.164738297,0.041164723
0.010375977,0.651489258,0.891967773,0.586101814,0.177661728,0.045561354
0.021606445,0.649658203,0.879882813,0.591164601,0.227490212,0.03117238
0.010498047,0.653076172,0.854980469,0.592230451,0.257733703,0.030372992
-0.005371094,0.655639648,0.852661133,0.630601048,0.283713795,0.064080496
-0.012817383,0.660400391,0.840087891,0.651651584,0.267193121,0.077670083
-0.016723633,0.720214844,0.874633789,0.689755719,0.17366479,0.106980956
0.003417969,0.689941406,0.879760742,0.69415235,0.064681636,0.104049868
0.019165039,0.691650391,0.838256836,0.687624019,0.046562187,0.100452625
0.024902344,0.704467773,0.841430664,0.703478537,0.077205372,0.080068245
0.003173828,0.720947266,0.860961914,0.700414218,0.083334009,0.075138689
0.004272461,0.748291016,0.865966797,0.651784816,0.059352386,0.05049091
0.007568359,0.744750977,0.848876953,0.599957863,0.051891437,0.023844662
0.016357422,0.766967773,0.784301758,0.574510696,0.111046107,0.002660894
0.02331543,0.766479492,0.789672852,0.581305489,0.144886842,-0.003467743
0.002197266,0.783447266,0.772705078,0.587567358,0.171000166,-0.008796992
-0.013183594,0.792724609,0.780517578,0.597026776,0.167536153,-0.005732674
-0.007446289,0.81262207,0.771606445,0.593029838,0.14888378,0.005325519
-0.018920898,0.808349609,0.769042969,0.563585734,0.09199404,0.029573605
0.005126953,0.814697266,0.763671875,0.55026261,0.068678573,0.035569011
0.022216797,0.816894531,0.75793457,0.547464754,0.047894499,0.018515412
0.010131836,0.820922852,0.732421875,0.547198292,0.059219155,0.021579731
-0.001342773,0.831420898,0.731445313,0.535740405,0.064281942,0.035169317
0.002075195,0.829711914,0.73425293,0.529744999,0.050559124,0.037967173
0.012939453,0.815185547,0.70715332,0.527346837,0.035903688,0.02904068
0.016479492,0.830322266,0.696777344,0.540137036,0.038834775,0.024910512
0.003417969,0.829101563,0.703613281,0.575443315,0.023646414,0.041830879
-0.001586914,0.838134766,0.681884766,0.578374402,0.001263565,0.04196411
-0.000976563,0.810791016,0.690917969,0.57277869,-0.049364306,0.024244355
0.005615234,0.819580078,0.681152344,0.565717434,-0.074678242,0.010255075
0.006835938,0.872558594,0.672607422,0.564251891,-0.101590953,-0.00639883
0.006713867,0.87878418,0.66418457,0.562786347,-0.102257109,-0.006265599
-0.001098633,0.869750977,0.646606445,0.568382059,-0.091731841,0.001595044
0.008300781,0.866333008,0.635375977,0.575443315,-0.095062622,-0.014525936
0.008911133,0.879150391,0.619873047,0.592896607,-0.115047308,-0.030513685
-0.000488281,0.879638672,0.613769531,0.595694463,-0.129169819,-0.020121648
0.004150391,0.869750977,0.608276367,0.600357557,-0.125572576,-0.013193623
0.014404297,0.888061523,0.591796875,0.620209012,-0.085736435,-0.019588723
0.02746582,0.899780273,0.596069336,0.636729685,-0.057891106,-0.022653041
0.015380859,0.905639648,0.614624023,0.599824632,-0.02831377,-0.003334511
-0.001953125,0.910766602,0.64453125,0.571846071,-0.020453127,-0.002934818
0.010253906,0.937744141,0.584960938,0.533608705,0.074141054,-0.013460086
0.040405273,0.932373047,0.575683594,0.550395841,0.161407516,-0.013726548
0.04296875,0.928588867,0.531982422,0.580772564,0.333009354,0.015584325
0.045288086,0.917724609,0.529052734,0.6039548,0.390165556,0.019048337
0.025390625,0.897338867,0.557128906,0.645656179,0.381505526,0.000262732
0.028930664,0.953857422,0.536987305,0.632333054,0.30356525,-0.014525936
0.024658203,0.893554688,0.518066406,0.607418812,0.227490212,-0.036242628
0.01184082,0.876464844,0.50390625,0.607951737,0.236816398,-0.039573409
0.014526367,0.948852539,0.485595703,0.589299364,0.267726046,-0.048899596
0.003173828,0.960205078,0.513793945,0.57171284,0.267859278,-0.049565752
0.000854492,0.927001953,0.519897461,0.496303958,0.242545342,-0.063155339
-0.022338867,0.932983398,0.477050781,0.436749593,0.264128803,-0.079143087
-0.013671875,0.95703125,0.448852539,0.418496913,0.281715327,-0.076744925
-0.019775391,0.965087891,0.44543457,0.412501507,0.270657134,-0.068617819
-0.041259766,0.978393555,0.446044922,0.405706714,0.185522371,-0.031845997
-0.032470703,0.977416992,0.450683594,0.405573483,0.118507057,-0.031313072
-0.033813477,0.976806641,0.435668945,0.39877869,-0.032843633,-0.058758708
-0.020874023,0.969360352,0.420532227,0.409970114,-0.082272423,-0.061023639
0.005615234,0.958740234,0.407592773,0.425824632,-0.121442408,-0.036642322
0.002685547,0.961914063,0.405273438,0.434751125,-0.112915608,-0.014392704
-0.023681641,0.958984375,0.405273438,0.423426469,-0.114247921,0.013719087
-0.042480469,0.959838867,0.415039063,0.410902733,-0.141560325,0.024111124
-0.015869141,0.961547852,0.404174805,0.418230451,-0.199782377,0.03983241
-0.008056641,0.944091797,0.385009766,0.422893544,-0.217102438,0.043296423
0.013793945,0.960083008,0.375732422,0.441545918,-0.236554199,0.031438842
-0.005859375,0.983886719,0.368408203,0.457133973,-0.2216323,0.006124907
-0.017089844,0.961669922,0.369262695,0.463795535,-0.197117752,0.009055994
-0.017822266,0.979492188,0.365722656,0.457133973,-0.130768594,0.039033023
0.005004883,1.007202148,0.366088867,0.446209011,-0.091065685,0.042097342
0.016113281,0.996582031,0.365356445,0.416631676,0.045762799,0.026509286
0.027832031,0.974121094,0.340576172,0.387853728,0.243477961,0.028507755
0.021606445,0.962280273,0.338500977,0.374397373,0.319153305,0.036235167
0.01184082,0.998291016,0.365722656,0.347351431,0.375643351,0.02904068
0.024414063,1.004882813,0.352783203,0.360408092,0.412814867,0.004526132
0.037231445,0.987182617,0.293334961,0.372931829,0.443724515,0.007323988
-0.002197266,0.971679688,0.287231445,0.394781752,0.464375357,0.039299486
-0.005371094,0.968017578,0.293945313,0.40091039,0.441726047,0.051157066
-0.00402832,0.981933594,0.298828125,0.406506102,0.408418236,0.060350022
-0.010009766,0.987670898,0.290039063,0.428089563,0.307562187,0.058884478
-0.012573242,1.000854492,0.264160156,0.433951737,0.257467241,0.052755841
-0.010009766,1.004638672,0.26953125,0.432486194,0.151548404,0.05049091
-0.024536133,1.012207031,0.277099609,0.389585734,0.043231406,0.030372992
-0.025390625,1.006225586,0.266845703,0.380659241,0.01578577,0.020114187
0.016479492,1.02355957,0.249145508,0.386121722,0.007925127,-0.013060392
-0.011474609,1.03125,0.246459961,0.385855259,0.000464178,-0.008796992
-0.018798828,1.025146484,0.236328125,0.366803192,-0.038439345,0.022112655
-0.00012207,1.026000977,0.21496582,0.370133973,-0.048964613,0.028507755
0.005371094,1.005981445,0.205688477,0.385855259,-0.056692025,0.020513881
0.011230469,1.000488281,0.205566406,0.40091039,-0.063220355,0.020913574
0.037597656,1.013916016,0.234741211,0.414499976,-0.111316833,0.024910512
0.003417969,1.002075195,0.221435547,0.391184509,-0.144091718,0.029840067
-0.018188477,1.001586914,0.209472656,0.340689869,-0.150353587,0.030506224
-0.005981445,0.983276367,0.210449219,0.30858114,-0.117711933,0.013186162
0.011108398,0.990112305,0.211669922,0.292326928,-0.105454659,-0.002268662
0.01574707,0.999267578,0.224853516,0.288063529,-0.118244858,-0.023452429
-0.014282227,0.997924805,0.19543457,0.277405029,-0.160479161,-0.026250285
-0.016967773,0.992919922,0.167236328,0.278870573,-0.189123878,-0.011061923
0.018432617,0.973144531,0.134277344,0.311911921,-0.242816068,-0.003734205
0.016479492,0.974975586,0.14465332,0.332829226,-0.262134598,-0.004800055
0.009887695,0.99987793,0.17565918,0.353080374,-0.269329085,0.005991675
0.01159668,1.029418945,0.176879883,0.336426469,-0.256672117,0.008256606
0.015136719,1.031616211,0.162231445,0.273941017,-0.16247763,0.003327051
0.020629883,1.01159668,0.153808594,0.232106408,-0.080540417,-0.003734205
0.022583008,1.016845703,0.164550781,0.180146224,0.006726046,-0.02251981
0.010742188,1.038085938,0.153076172,0.177748061,-0.01752204,-0.03544324
-0.004394531,1.041625977,0.147827148,0.1668231,-0.107852821,-0.044502965
0.012695313,1.017578125,0.148193359,0.154432594,-0.143692025,-0.062089489
0.022216797,1.014282227,0.146240234,0.115529072,-0.15821423,-0.113916441
0.017211914,1.013916016,0.148925781,0.091414218,-0.125306113,-0.127239565
0.005493164,1.006103516,0.139160156,0.044783283,-0.010727247,-0.11911246
-0.015258789,0.999267578,0.123901367,0.027996147,0.047894499,-0.090600974
-0.017822266,1.004638672,0.132568359,0.015738873,0.097190058,-0.049432521
-0.006958008,0.991577148,0.14453125,0.013074248,0.088663259,-0.040639259
0.001464844,1.001220703,0.143920898,0.012141629,0.068545342,-0.042371265
0.036376953,1.018676758,0.135986328,0.015872104,0.10278577,-0.06115687
0.036621094,1.00769043,0.149536133,0.008810848,0.137292662,-0.063155339
-0.005004883,1.010131836,0.145019531,-0.009974757,0.194848558,-0.055294695
-0.009521484,0.991210938,0.124267578,-0.000781801,0.211102769,-0.044502965
-0.001708984,0.997314453,0.127441406,0.007345305,0.198712264,-0.030380453
-0.006225586,1.010498047,0.123291016,0.026530603,0.151548404,-0.016124711
0.002197266,1.002319336,0.126342773,0.032259547,0.128899094,-0.015591786
0.004150391,1.001342773,0.118774414,0.041452502,0.126634163,-0.029714297
0.00769043,0.999267578,0.12487793,0.047048214,0.148084392,-0.038907253
0.005004883,1.002685547,0.125244141,0.047980833,0.206972601,-0.029314603
-0.020751953,1.013183594,0.116821289,0.041452502,0.233485617,-0.00853053
-0.014526367,1.006713867,0.125366211,0.02186751,0.253203841,0.014784937
-0.002929688,1.000366211,0.142456055,0.025731216,0.194448864,-0.015991479
-0.004760742,1.011352539,0.131835938,0.032792472,0.153147179,-0.024385048
-0.029052734,1.000488281,0.110351563,0.039320803,0.087464178,-0.015591786
-0.030151367,0.995849609,0.123535156,0.025331522,-0.007662928,-0.003734205
-0.017089844,0.995605469,0.114746094,0.020401966,-0.037240263,-0.007064986
-0.012695313,0.989868164,0.122802734,0.016271798,-0.05296155,-0.004000668
0.000366211,1.002075195,0.127075195,0.014140098,-0.049897231,0.004126438
0.002807617,1.012817383,0.137451172,0.010542855,-0.02618207,0.007990144
0.019042969,1.028198242,0.126708984,0.007212074,-0.017122346,0.007457219
0.00769043,1.036499023,0.134643555,0.004280986,-0.003399528,-0.007597911
-0.000976563,1.021972656,0.109741211,0.002282518,0.005526965,-0.013593317
-0.004882813,1.017211914,0.105224609,0.013873636,0.050825587,-0.013193623
-0.004272461,1.005493164,0.130126953,0.037189103,0.060285005,0.012120312
-0.007568359,1.005859375,0.125488281,0.034657709,0.045363106,0.0171831
-0.013183594,1.016967773,0.125488281,0.037322334,0.025778113,0.004259669
-0.003295898,0.98815918,0.113647461,0.04225189,0.039101237,-0.002401893
-0.004638672,0.988647461,0.118896484,0.048380527,0.093592815,0.0171831
-0.008300781,1.006713867,0.124755859,0.05304362,0.130364637,0.040631798
-0.012939453,0.994628906,0.130371094,0.037455565,0.170334009,0.055420466
-0.002319336,1.00793457,0.139282227,0.026397372,0.165670916,0.042763498
-0.002197266,1.021728516,0.139404297,0.007478536,0.128632631,-0.005999136
-0.005859375,1.035400391,0.122070313,0.002815443,0.121304913,-0.023185966
-0.002197266,1.008300781,0.106201172,-0.00278027,0.129298787,-0.02998076
0.005737305,1.006958008,0.115112305,0.008810848,0.118240594,-0.023052735
0.003051758,0.993164063,0.118896484,0.014673023,0.099987914,-0.027182904
-0.033203125,0.998291016,0.134399414,0.002149286,0.035237531,-0.024385048
-0.03527832,1.006469727,0.130249023,0.000950205,0.014853152,-0.029847528
-0.0078125,1,0.116943359,0.001216668,0.017651008,-0.02998076
-0.008911133,1,0.119384766,-0.005178432,0.028442738,-0.025317666
-0.017944336,0.993408203,0.115844727,-0.002513807,0.063749017,-0.02251981
-0.008666992,0.995239258,0.126220703,0.008144692,0.078937378,-0.015192092
-0.000976563,1.002319336,0.123168945,0.026530603,0.093326352,-0.002535124
-0.009399414,1.010131836,0.135375977,0.028129378,0.082401391,-0.001602505
-0.001953125,1.018066406,0.12121582,0.043584202,0.066946567,-0.004666824
0.00390625,1.009765625,0.109375,0.058905795,0.071343198,-0.005466211
-0.001342773,1.014770508,0.116333008,0.076892012,0.060285005,-0.003068049
-0.017822266,1.026123047,0.122802734,0.072228919,0.03830185,-0.008663761
-0.025024414,1.032104492,0.125976563,0.033325397,-0.001001366,-0.029581066
-0.027099609,1.023071289,0.112670898,0.003348368,0.01578577,-0.041305415
-0.020874023,1.01574707,0.107666016,-0.007310132,0.065614254,-0.019055798
-0.008789063,1.011230469,0.117553711,-0.010507681,0.082268159,-0.00746468
0.00402832,1.009887695,0.114501953,-0.019700637,0.064281942,-0.009729611
-0.012817383,1.017944336,0.126464844,-0.024230499,0.031507057,-0.02251981
-0.016723633,1.012939453,0.128051758,-0.021166181,-0.015656802,-0.057159933
-0.008789063,0.995239258,0.115478516,-0.015836931,-0.016589421,-0.063555032
-0.012573242,0.99230957,0.110717773,0.001083436,0.009124208,-0.03544324
-0.004394531,0.998535156,0.110717773,0.008810848,0.019249783,-0.022786273
-0.00402832,0.997314453,0.115234375,0.035457097,0.016984851,-0.009463149
0.002441406,0.991455078,0.129272461,0.038787878,-0.006730309,-0.013460086
0.004150391,0.995361328,0.135375977,0.038787878,-0.04443475,-0.043836809
0.005615234,1.011962891,0.131835938,0.044250358,-0.047499069,-0.065819963
0.005615234,1.031860352,0.131225586,0.039454034,-0.014857415,-0.083539718
-0.027709961,1.036254883,0.123291016,0.04118604,0.010856214,-0.077544313
-0.028564453,1.031005859,0.113647461,0.022133972,0.046428956,-0.063821495
-0.014038086,1.024414063,0.094726563,0.014939485,0.064548404,-0.054495308
-0.003540039,0.983520508,0.112915039,0.012408092,0.082001697,-0.047300821
-0.002807617,0.986694336,0.1171875,0.02080166,0.085465709,-0.033444772
-0.030151367,0.978149414,0.120483398,0.047181446,0.08986234,-0.029714297
-0.038452148,0.987792969,0.125,0.056107939,0.085332478,-0.021187498
-0.037719727,1.014404297,0.117797852,0.069830757,0.075606597,-0.011061923
-0.034667969,1.019287109,0.115844727,0.066233513,0.064415173,-0.002535124
-0.034545898,1.005493164,0.110839844,0.046648521,0.050958818,0.005192288
-0.020629883,0.995483398,0.115600586,0.035457097,0.050825587,0.004526132
-0.010009766,0.998413086,0.11340332,0.013074248,0.07587306,-0.017323792
-0.020629883,1.001464844,0.112670898,0.002682211,0.080935847,-0.014792398
-0.043701172,1.006103516,0.111572266,-0.017435706,0.071742891,-0.002801587
-0.05078125,1.009277344,0.107177734,-0.025562812,0.05868623,0.001728276
-0.042114258,1.003662109,0.116210938,-0.028227436,0.00819159,0.003460282
-0.030395508,0.998413086,0.112060547,-0.023830806,-0.012059559,0.002527663
-0.004394531,0.997924805,0.118774414,-0.004645507,-0.026714995,0.011720619
-0.002197266,1.000854492,0.111572266,0.009743467,-0.021918671,0.020913574
-0.015869141,0.996459961,0.11328125,0.030261078,-0.01006109,0.017582793
-0.025756836,0.998901367,0.114746094,0.030794003,-0.006064153,0.017982487
-0.029296875,1.007202148,0.115722656,0.028795534,-0.005264766,0.010521538
-0.027832031,1.004272461,0.123291016,0.02506506,-0.003665991,0.004259669
-0.024658203,1.009643555,0.118164063,0.012141629,0.009657133,-0.003467743
-0.020874023,1.011474609,0.121337891,0.009876698,0.032706138,-0.00853053
-0.012084961,1.003417969,0.10559082,0.007078842,0.085865403,-0.007864374
-0.019897461,1.002685547,0.111206055,0.006412686,0.100121146,-0.003467743
-0.030273438,1.012207031,0.114746094,0.00468068,0.081868466,-0.004000668
-0.036987305,1.010864258,0.111083984,0.003881293,0.062816398,-0.003734205
-0.035400391,1.007446289,0.107055664,0.004014524,0.033505525,0.002394432
-0.02734375,0.997680664,0.112182617,0.001216668,0.02111502,0.006391369
-0.021728516,1.004516602,0.118530273,-0.006244282,0.009523902,0.005991675
-0.01550293,1.005615234,0.116088867,-0.0157037,0.015519308,0.003859976
-0.015136719,1.008544922,0.119750977,-0.025562812,0.048827118,0.004659363
-0.021972656,1.006958008,0.108520508,-0.027428049,0.068012417,0.010388306
-0.013549805,1.008911133,0.11315918,-0.020500025,0.100121146,0.026376055
-0.007202148,1.009155273,0.118652344,-0.005311663,0.084932784,0.032104999
-0.015014648,1.002319336,0.12890625,0.013340711,0.034971069,0.009588919
-0.01940918,1.005493164,0.117919922,0.020135504,0.017384545,0.004126438
-0.022216797,1.016601563,0.118896484,0.029461691,0.006459583,0.007457219
-0.025390625,1.012939453,0.121826172,0.032392778,0.012854683,0.017049868
-0.013061523,1.00769043,0.121704102,0.034657709,0.020848557,0.023178505
-0.017578125,1.00378418,0.125,0.039853727,0.028043044,0.015984018
-0.020629883,0.99987793,0.123413086,0.039986959,0.033239063,0.003327051
-0.008178711,1.017944336,0.128051758,0.03372509,0.033372294,-0.000270193
-0.004516602,1.019165039,0.121459961,0.043051277,0.042831712,-0.004133899
-0.005859375,1.01171875,0.120849609,0.047048214,0.045762799,-0.003734205
-0.010375977,0.998657227,0.10144043,0.048780221,0.049892968,0.007457219
-0.010864258,1.009277344,0.104248047,0.05304362,0.044030793,0.015451093
-0.018310547,1.003295898,0.112670898,0.056507633,-6.87473E-05,0.015317862
-0.017700195,0.997314453,0.114990234,0.053176852,-0.022984521,0.010121844
-0.0234375,0.998779297,0.107421875,0.05304362,-0.035108564,-0.002535124
-0.026855469,0.995361328,0.107543945,0.052777158,-0.025382683,-0.001336043
-0.010742188,1.01159668,0.098510742,0.047980833,-0.005664459,0.016250481
-0.013061523,1.021484375,0.112182617,0.041452502,-0.005930922,0.023045274
-0.015869141,1.012084961,0.109619141,0.030794003,-0.034042714,0.021712962
-0.021606445,0.991455078,0.116210938,0.023199822,-0.045367369,0.012520006
-0.018554688,0.998291016,0.114013672,0.014939485,-0.043102438,0.009588919
-0.005737305,1.017700195,0.108154297,0.014273329,-0.027780845,0.011454156
-0.002197266,1.019775391,0.105102539,0.018003804,0.012588221,0.017582793
-0.001708984,1.011230469,0.116210938,0.020002273,0.029508588,0.014385244
-0.001953125,1.008178711,0.118896484,0.02080166,0.028442738,0.007990144
-0.01550293,1.021484375,0.122924805,0.009743467,0.006459583,-0.010395767
-0.013793945,1.025634766,0.124511719,0.007345305,-6.87473E-05,-0.014525936
-0.01184082,1.010131836,0.122436523,0.004547449,0.010722983,-0.019055798
-0.010498047,1.000854492,0.118774414,0.004813911,0.047628037,-0.029847528
-0.024414063,1.003540039,0.116821289,0.001882824,0.078271222,-0.026383516
-0.020385742,1.002319336,0.119262695,-0.00064857,0.074274285,-0.01825641
-0.01159668,1.00012207,0.10949707,0.006545917,0.071076735,-0.017057329
0.001586914,0.99621582,0.099487305,0.030127847,0.068012417,-0.022653041
0.000488281,0.997436523,0.102294922,0.040919577,0.065347792,-0.018389642
-0.005737305,1.011474609,0.099487305,0.055974708,0.054556061,-0.010795461
-0.005493164,1.012695313,0.10534668,0.059172257,0.042165556,-0.010129305
-0.009033203,1.006469727,0.101806641,0.058905795,0.010323289,0.000529194
-0.02355957,1.002441406,0.103759766,0.058772564,-0.025782377,0.002127969
-0.034057617,1.001342773,0.102905273,0.061170726,-0.040837507,0.013052931
-0.015136719,1.005126953,0.104370117,0.045316208,-0.052162162,0.016783406
-0.013916016,1.009399414,0.105957031,0.033991553,-0.051096312,0.015451093
-0.006958008,1.010864258,0.101318359,0.021201354,-0.030978395,-0.00426713
-0.010620117,1.009887695,0.107543945,0.014273329,-0.009661397,-0.005599443
-0.015014648,1.013305664,0.110717773,0.011075779,-0.005930922,-0.005999136
-0.012207031,1.014648438,0.107788086,0.015872104,-0.000734904,0.004792594
-0.009643555,1.006958008,0.120361328,0.024265672,-0.008195853,0.007457219
-0.012451172,1.016235352,0.120605469,0.032259547,-0.008062622,0.00759045
0.001831055,1.004150391,0.100585938,0.049179914,0.025644882,-0.007997605
0.00390625,0.986328125,0.10949707,0.048513758,0.047894499,-0.006132368
-0.017578125,1.018554688,0.108764648,0.051444845,0.055888374,-0.00213543
-0.030883789,1.014892578,0.112182617,0.051178383,0.035503994,-0.000536655
-0.03894043,0.995727539,0.101318359,0.056640864,0.006193121,-0.009329917
-0.023193359,0.996704102,0.091308594,0.056507633,-0.000734904,-0.010528998
-0.016357422,0.994262695,0.09753418,0.062103345,0.004327884,-0.001336043
-0.011962891,0.994628906,0.092407227,0.050378995,0.018583626,0.008789531
-0.021972656,1.010864258,0.091186523,0.047847602,0.023379951,0.011054462
-0.021484375,1.000854492,0.089355469,0.036522946,0.036303381,0.012786469
-0.008300781,0.984130859,0.098144531,0.025331522,0.041899093,0.01611725
-0.005371094,0.99987793,0.089233398,0.013207479,0.041765862,0.021979424
-0.020263672,1.024780273,0.08984375,0.010676086,0.032572907,0.014918168
-0.022460938,1.013061523,0.109375,0.007212074,0.013254377,-0.006532061
-0.018310547,1.00378418,0.090820313,-0.007443363,0.028442738,-0.004800055
-0.011474609,0.999267578,0.097290039,-0.010907375,0.042831712,0.001328582
-0.013183594,1.001586914,0.096801758,-0.016236625,0.062283473,0.015184631
-0.012573242,1.011108398,0.101074219,-0.014504619,0.05655453,0.012386775
-0.005004883,1.011474609,0.098999023,-0.013305538,0.050425893,0.005192288
-0.005249023,1.016723633,0.102905273,-0.016902781,0.051758205,0.001461813
-0.013916016,1.01550293,0.100097656,-0.017702168,0.059219155,0.003859976
-0.020507813,1.003051758,0.099121094,-0.020100331,0.064281942,0.009988613
-0.018310547,1.008422852,0.109008789,-0.018235093,0.05868623,0.011054462
-0.012207031,1.012817383,0.108642578,-0.003046732,0.047761268,0.006791063
0.000732422,1.014282227,0.10546875,0.004014524,0.042698481,0.004925825
0.009277344,1.025634766,0.112548828,0.01547241,0.032306444,-0.006532061
0.006469727,1.020629883,0.118774414,0.018536729,0.030174744,-0.021853654
-0.001220703,1.009643555,0.103515625,0.00894408,0.050425893,-0.04503589
-0.010986328,1.005249023,0.104736328,0.004547449,0.071876123,-0.049832214
-0.014282227,0.999511719,0.09765625,0.000816974,0.11451012,-0.037708172
-0.009033203,0.998535156,0.09375,0.004414217,0.130497868,-0.026250285
-0.023681641,1.002075195,0.098876953,0.009210542,0.114776582,-0.005066518
-0.026000977,1.006591797,0.097290039,0.011209011,0.084266628,0.001994738
-0.014892578,0.998413086,0.099731445,0.017337648,0.051891437,0.003327051
-0.007324219,0.995239258,0.102294922,0.031460159,-0.003799222,0.004126438
-0.000366211,0.99609375,0.092041016,0.037055871,-0.021518977,0.000662426
-0.003540039,1.004516602,0.084960938,0.042385121,-0.022451596,0.002660894
-0.009765625,1.008422852,0.098999023,0.04225189,-0.012992178,0.004659363
-0.007080078,1.005737305,0.09765625,0.031593391,0.016984851,0.009855381
-0.008911133,1.001220703,0.09387207,0.01653826,0.054955755,0.01611725
-0.00769043,0.997802734,0.094116211,0.008677617,0.066813335,0.01611725
-0.011108398,1.008666992,0.096191406,0.005213605,0.072542279,0.014918168
-0.017456055,1.005859375,0.095825195,0.008144692,0.059219155,0.012120312
-0.019775391,1.004150391,0.094116211,0.006012992,0.020981789,0.012786469
-0.020263672,0.998046875,0.098144531,0.002415749,0.006459583,0.0150514
-0.013183594,1.008422852,0.099609375,-0.005977819,-0.005131534,0.015317862
-0.015869141,1.015258789,0.106323242,-0.009841525,-0.009394934,0.009588919
-0.013183594,1.014404297,0.097167969,-0.017036012,0.004194652,-0.004133899
0.00390625,1.010864258,0.09765625,-0.019567406,0.023779645,-0.002668355
0.014892578,1.004150391,0.106445313,-0.014771081,0.066946567,-0.000669887
0.017822266,1.006225586,0.103271484,-0.009974757,0.076139522,-0.00213543
0.002685547,1.019287109,0.099365234,-0.006510744,0.074274285,-0.012927161
-0.015380859,1.013061523,0.092041016,-0.003313194,0.06081793,-0.027449366
-0.016235352,1.005615234,0.098022461,-0.000781801,0.056954224,-0.027182904
-0.01965332,1.000732422,0.098632813,0.006945611,0.048294193,-0.016391173
-0.023193359,1.010009766,0.093383789,0.011875167,0.035370763,-0.00106958
-0.01184082,1.009521484,0.094238281,0.013074248,0.028309507,-0.001602505
-0.008544922,1.00390625,0.100097656,0.010143161,0.022713795,-0.00533298
-0.010986328,0.994750977,0.103637695,0.007345305,0.014320227,-0.016790867
-0.009521484,0.996826172,0.102661133,0.008011461,0.01578577,-0.013326855
-0.013549805,0.998046875,0.104370117,0.005080374,0.029375357,0.004925825
-0.011108398,0.995239258,0.095214844,-0.000382107,0.032439675,0.005591982
-0.01184082,0.990112305,0.097290039,-0.007043669,0.030574438,-0.004533593
-0.012817383,0.99609375,0.102905273,-0.007443363,0.029375357,-0.005865905
-0.016113281,1.001220703,0.09765625,-0.003313194,0.03190675,0.014918168
-0.022583008,1.015258789,0.097900391,0.000816974,0.026044576,0.026775749
-0.019287109,1.016601563,0.099121094,0.006012992,0.001263565,0.032904386
-0.006591797,1.013183594,0.108154297,0.008144692,-0.010194322,0.027708368
0.004516602,1.023071289,0.104614258,0.020268735,-0.012992178,0.024111124
0.009399414,1.02331543,0.112792969,0.026397372,-0.004865072,0.024644049
0.003173828,1.021606445,0.116333008,0.027729685,-0.002600141,0.017716025
-0.00793457,1.013549805,0.112182617,0.020668429,0.002595877,-0.01172808
-0.009399414,1.010986328,0.115844727,0.016671492,0.009523902,-0.021853654
-0.012329102,1.007446289,0.110473633,0.008677617,0.034704606,-0.023985354
-0.010742188,1.007324219,0.114501953,0.006945611,0.051358512,-0.020254879
-0.002197266,1.003540039,0.102294922,0.007744998,0.072275816,-0.008130836
-0.009033203,0.997070313,0.09362793,0.012408092,0.076405985,-0.004666824
-0.006835938,1.002319336,0.100830078,0.019069654,0.059352386,-0.007997605
0.006958008,1.005981445,0.103637695,0.027596453,0.045363106,-0.009996074
0.002197266,1.005737305,0.1015625,0.038787878,0.030441207,-0.001202812
-0.00378418,0.996459961,0.100830078,0.040786346,0.029775051,0.009855381
-0.017211914,0.999023438,0.099121094,0.041852196,0.029641819,0.010921231
-0.016845703,1.008422852,0.096069336,0.041052809,0.027110426,0.014651706
-0.010620117,1.010864258,0.104125977,0.037455565,0.023113489,0.013319394
-0.006103516,1.008056641,0.098510742,0.023333054,0.010989446,0.011454156
-0.005615234,0.998291016,0.092651367,0.015872104,0.012055296,0.011454156
-0.009643555,1.000244141,0.098388672,0.002682211,0.02004917,0.008922763
-0.005249023,1.014038086,0.10168457,-0.007709825,0.025111957,0.000395963
-0.004394531,1.008789063,0.1015625,-0.013572,0.024845495,-0.004933286
-0.004760742,1.005249023,0.10168457,-0.023964037,0.025644882,0.005591982
-0.017822266,1.017089844,0.102905273,-0.029559749,0.014453458,0.002794126
-0.012817383,1.010742188,0.106567383,-0.031025293,0.008990977,-0.003467743
-0.002319336,1.001953125,0.102905273,-0.021699106,0.016451927,-0.010129305
0.001464844,1.009643555,0.100830078,-0.012106456,0.027243657,-0.004933286
0.002685547,1.015869141,0.104614258,0.004414217,0.038568312,0.007323988
-0.00012207,1.013549805,0.106689453,0.009876698,0.038968006,0.007457219
0.003051758,1.003540039,0.101806641,0.022533666,0.037635694,0.002927357
0.002807617,0.999145508,0.108764648,0.024798597,0.035237531,-0.002668355
-0.001098633,1.002319336,0.105224609,0.025464753,0.035770456,-0.007331449
-0.00793457,1.005737305,0.10925293,0.023199822,0.038035387,-0.010129305
-0.017700195,1.005493164,0.098510742,0.02080166,0.052824055,-0.018922567
-0.012451172,1.005371094,0.098388672,0.019069654,0.070677041,-0.013593317
-0.006347656,1.014038086,0.103393555,0.021467816,0.074141054,-0.007864374
-0.010131836,1.022460938,0.097900391,0.017870573,0.047628037,-0.005066518
-0.009033203,1.017089844,0.104614258,0.011475473,0.025111957,-0.009196686
-0.008911133,1.004150391,0.101928711,0.004414217,-0.007796159,-0.016790867
-0.014160156,0.998291016,0.100952148,0.004147755,-0.006330616,-0.017323792
-0.014526367,1.002197266,0.10168457,0.001083436,0.019516245,-0.006132368
-0.014770508,1.00769043,0.096801758,-0.00064857,0.032173213,0.001861507
-0.008789063,1.014404297,0.108886719,-0.009441832,0.039900625,0.008789531
-0.002929688,1.0078125,0.106079102,-0.013705231,0.035370763,0.006258138
-0.00402832,1.005371094,0.107543945,-0.016103394,0.026177807,-0.004533593
0.001953125,1.022949219,0.106811523,-0.012772613,0.018183933,-0.00959638
0.005859375,1.02722168,0.105712891,-0.007843057,0.01791747,-0.012394236
0.008178711,1.009643555,0.104858398,0.004813911,0.026311038,-0.00639883
0.000976563,1.003540039,0.10559082,0.010542855,0.026044576,-0.001868968
-0.012939453,1.005981445,0.115600586,0.016271798,0.018716858,-0.00426713
-0.01171875,0.998413086,0.110961914,0.016405029,0.016451927,-0.014126242
-0.005126953,0.997314453,0.110229492,0.01547241,0.029508588,-0.015458554
-0.004150391,0.994873047,0.102905273,0.018536729,0.040700012,-0.018656104
0.001342773,0.997192383,0.110717773,0.022133972,0.053090518,-0.022120116
-0.002563477,1.003662109,0.098144531,0.024265672,0.062017011,-0.023718891
-0.012207031,1.006835938,0.100341797,0.028129378,0.071876123,-0.008930224
-0.015625,1.0078125,0.099243164,0.02826261,0.065614254,0.003993207
-0.009277344,1.003051758,0.109619141,0.030527541,0.040167087,0.016383712
-0.013305664,0.99987793,0.10546875,0.030660772,0.028575969,0.017049868
-0.009521484,0.99597168,0.1015625,0.030794003,0.014186995,0.014252012
-0.005004883,0.996948242,0.100952148,0.030927234,0.010589752,0.012253544
-0.007568359,1.01184082,0.105224609,0.028928766,0.010989446,0.009455688
-0.019287109,1.014892578,0.106933594,0.013607173,0.009523902,0.010654769
-0.019775391,1.004150391,0.102783203,-0.009974757,0.014453458,0.007723681
-0.000854492,1.003662109,0.105102539,-0.017702168,0.018050701,0.0043929
0.00769043,1.009399414,0.099121094,-0.016103394,0.037502463,0.002527663
-0.000976563,1.017089844,0.098999023,-0.013039075,0.044164025,0.008523069
-0.003662109,1.013793945,0.106689453,-0.006244282,0.041232937,0.016650175
-0.009277344,1.004394531,0.10546875,-0.005977819,0.019249783,0.005325519
-0.011474609,0.998657227,0.107055664,-0.003846119,0.013387608,-0.000803118
-0.007080078,1.009887695,0.107055664,0.004014524,0.015386077,-0.000803118
-0.002807617,1.018798828,0.107421875,0.015205948,0.02537842,0.001994738
0.001098633,1.012939453,0.108276367,0.018137035,0.029775051,0.003993207
-0.002807617,1.005981445,0.098876953,0.024265672,0.050026199,0.004659363
-0.010742188,1.006958008,0.103759766,0.027862916,0.055088986,0.007457219
-0.012451172,1.014892578,0.102294922,0.033591859,0.045096643,0.012786469
-0.002563477,1.012329102,0.103881836,0.038787878,0.034837838,0.012253544
0.001831055,0.997802734,0.106567383,0.046914983,0.012454989,0.00972215
-0.00390625,0.992797852,0.108764648,0.047581139,0.002462646,0.007990144
-0.006347656,0.997192383,0.105957031,0.046115596,-0.007263234,-0.003867436
-0.007080078,0.998779297,0.104248047,0.043850665,-0.004065685,-0.009996074
0.002441406,1.002441406,0.097045898,0.039587265,0.022847026,-3.73047E-06
-0.005859375,1.012451172,0.107055664,0.038654646,0.050825587,0.014918168
0.006469727,1.012451172,0.098388672,0.038654646,0.052157899,0.014385244
0.012084961,1.014404297,0.098876953,0.040786346,0.046828649,0.006124907
0,1.013427734,0.099121094,0.045182977,0.039101237,-0.007198217
-0.011474609,1.013183594,0.108642578,0.044783283,0.032839369,-0.00426713
-0.012207031,1.01184082,0.106933594,0.035190634,0.020715326,0.007323988
-0.013793945,1.001708984,0.109619141,0.022000741,0.008990977,-3.73047E-06
-0.012084961,1.008544922,0.108154297,0.016405029,0.010323289,-0.005599443
-0.008911133,1.011474609,0.102539063,0.006146224,0.022314101,-0.013859779
0.000244141,1.015625,0.102905273,0.001216668,0.035770456,-0.012927161
0.01550293,1.012573242,0.093505859,-0.003846119,0.067879185,-0.015325323
0.015014648,1.010253906,0.104614258,-0.001847651,0.07587306,-0.017323792
0.005126953,1.009887695,0.101318359,0.00574653,0.080935847,-0.018389642
-0.005493164,1.006713867,0.09753418,0.009077311,0.074940441,-0.015858248
-0.004760742,1.009399414,0.096435547,0.012941017,0.053889905,-0.007731142
-0.007446289,1.006225586,0.099121094,0.01547241,0.037236,-0.005599443
-0.005737305,1.003295898,0.105102539,0.020934891,0.006726046,-0.011594848
-0.013305664,1.010986328,0.112426758,0.01866996,-0.001800753,-0.011461617
-0.010864258,1.01171875,0.101928711,0.010143161,0.024712263,-0.019189029
0.006103516,1.004760742,0.091186523,0.008144692,0.049226812,-0.025450897
0.001831055,1.000366211,0.096557617,0.005346836,0.071209966,-0.028381985
-0.006958008,1.004150391,0.098632813,-0.003046732,0.082134928,-0.030780147
-0.013671875,0.999023438,0.095703125,-0.006111051,0.07800476,-0.02891491
-0.012329102,1.002807617,0.089477539,-0.00278027,0.065214561,-0.022786273
-0.008911133,1.006103516,0.092651367,0.008277923,0.048427424,-0.013593317
-0.01159668,1.010253906,0.09362793,0.015205948,0.044830181,-0.00746468
-0.004272461,1.01171875,0.0859375,0.021467816,0.040167087,0.006391369
0.00378418,1.002441406,0.098510742,0.025597985,0.039634162,0.008389838
0.005249023,0.998657227,0.10168457,0.033458628,0.023912876,0.003859976
-0.002075195,1.000610352,0.095947266,0.035457097,0.018716858,0.000529194
-0.010620117,1.006469727,0.09362793,0.037322334,0.008591283,0.001461813
-0.007202148,1.015258789,0.097290039,0.033458628,0.004594346,0.000129501
-0.008056641,1.009277344,0.106323242,0.026797066,0.004194652,-0.004000668
-0.012939453,1.00390625,0.098510742,0.02186751,0.009124208,-0.007997605
-0.007446289,1.010498047,0.106201172,0.013607173,0.022713795,-0.008663761
-0.008789063,1.009521484,0.102294922,0.00894408,0.036436613,-0.000136962
-0.001220703,1.005004883,0.102416992,0.01000993,0.036703075,0.000928888
0.000854492,1.005615234,0.096435547,0.01653826,0.029108894,-0.01066223
-0.005615234,1.014648438,0.108642578,0.018137035,0.023912876,-0.017856717
-0.010742188,1.012451172,0.103027344,0.017337648,0.019782708,-0.022786273
-0.006103516,1.008056641,0.094482422,0.015339179,0.028709201,-0.021187498
-0.001708984,1.000366211,0.09362793,0.014140098,0.053090518,-0.008930224
-0.001098633,0.997314453,0.098022461,0.012807786,0.060018542,-0.017457023
-0.006958008,1.011352539,0.096557617,0.019202885,0.054556061,-0.022120116
-0.007324219,1.012329102,0.094848633,0.021601048,0.049759737,-0.019055798
-0.008422852,1.002319336,0.094360352,0.019336116,0.038968006,-0.001469274
-0.01184082,1.00793457,0.096679688,0.015072717,0.024445801,-0.000270193
-0.010498047,1.006469727,0.093994141,0.014673023,0.017384545,-0.004133899
-0.014282227,0.999755859,0.09362793,0.012541323,0.015386077,-0.006532061
-0.013793945,1.000366211,0.093261719,0.012141629,0.011522371,-0.001202812
-0.012939453,1.004272461,0.099975586,0.012541323,0.008857746,0.000928888
-0.010742188,1.006469727,0.091674805,0.004147755,0.011255908,0.001595044
0.001708984,1.007568359,0.092041016,0.012008398,0.032039982,-0.003068049
0.009521484,1.000854492,0.09375,0.021334585,0.04043355,0.002127969
0.004760742,0.994628906,0.093383789,0.030794003,0.028975663,0.004126438
-0.004516602,0.998413086,0.091308594,0.032526009,0.016585158,0.004259669
-0.016845703,1.00012207,0.085205078,0.032259547,-0.001667522,0.004792594
-0.01965332,1.000854492,0.093261719,0.031859853,-0.004865072,0.0065246
-0.017456055,1.002197266,0.093994141,0.026397372,-0.00353276,0.017982487
-0.017700195,1.002929688,0.098388672,0.021201354,-0.001267828,0.023844662
-0.021240234,1.001953125,0.098876953,0.009477005,0.001530028,0.028907449
-0.012451172,1.002563477,0.096313477,0.003481599,0.006592815,0.025709899
-0.004394531,1.008178711,0.102783203,-0.008109519,0.018183933,0.011320925
0.000854492,1.015136719,0.107177734,-0.020633256,0.031373825,0.011320925
0.003662109,1.016845703,0.113647461,-0.023964037,0.034438144,0.009322456
0.009399414,1.018066406,0.110595703,-0.022498493,0.042298787,0.000129501
0.006225586,1.017700195,0.104125977,-0.019434175,0.04909358,-0.004533593
-0.000976563,1.02331543,0.100708008,-0.015304006,0.054023136,-0.011061923
-0.001342773,1.025756836,0.108032227,-0.01463785,0.047494806,-0.016257942
-0.008178711,1.026733398,0.112304688,-0.014904312,0.030974132,-0.028781678
-0.013916016,1.016723633,0.104614258,-0.016103394,0.028709201,-0.031845997
-0.003295898,1.003051758,0.096069336,-0.018368325,0.0436311,-0.043437115
0.009155273,1.000610352,0.100463867,-0.018634787,0.056154836,-0.047300821
0.001220703,1.005004883,0.101074219,-0.006377513,0.096657133,-0.041705109
-0.00378418,1.000732422,0.094360352,-0.006111051,0.113577501,-0.034510622
-0.004760742,1.000488281,0.094482422,1.75865E-05,0.116641819,-0.023185966
-0.000976563,0.995239258,0.097045898,0.008011461,0.079869997,-0.024917972
-0.019042969,0.998779297,0.091674805,0.013074248,0.056687761,-0.028248753
-0.02355957,1.004394531,0.100952148,0.013607173,0.013387608,-0.033578003
-0.017822266,1.009399414,0.100463867,0.012008398,0.001929721,-0.029447835
-0.002441406,1.006225586,0.083740234,0.010276392,0.024046107,-0.018922567
0.003051758,0.995361328,0.088989258,0.01000993,0.039101237,-0.011328386
-0.005126953,0.99621582,0.086181641,0.007478536,0.054822524,-0.010795461
-0.009521484,0.998168945,0.087402344,0.006279455,0.054822524,-0.00853053
-0.021240234,1.001708984,0.092285156,0.00361483,0.037635694,-0.001202812
-0.024780273,0.999755859,0.097167969,0.004014524,0.021781176,0.004126438
-0.014770508,1.002563477,0.098999023,0.007744998,-0.001933985,0.015451093
-0.013183594,1.003173828,0.097290039,0.014006867,-0.008728778,0.01611725
-0.005981445,1.001342773,0.102661133,0.023599516,-0.016189727,0.009988613
-0.006469727,1.003051758,0.104980469,0.023865979,-0.012992178,0.006924294
-0.004638672,1.008300781,0.100952148,0.018803191,0.009923596,0.009189225
-0.002441406,1.010009766,0.103637695,0.017071185,0.024445801,0.009455688
-0.006225586,1.005981445,0.104858398,0.01760411,0.041099706,0.011720619
-0.0078125,1.005859375,0.103271484,0.018137035,0.044963412,0.006791063
-0.011230469,1.009643555,0.109008789,0.021467816,0.042032325,-0.004400361
-0.014038086,1.014038086,0.107543945,0.018403498,0.036969538,-0.003734205
-0.01171875,1.01550293,0.104125977,0.017870573,0.034304913,-0.003867436
-0.007324219,1.010498047,0.10559082,0.015205948,0.025511651,-0.013993011
-0.006225586,1.008178711,0.10144043,0.012541323,0.027510119,-0.01825641
-0.01171875,1.009765625,0.098754883,0.006279455,0.04469695,-0.017723485
-0.016113281,1.009887695,0.100219727,0.002149286,0.05335698,-0.012927161
-0.015014648,1.005981445,0.096313477,-0.005311663,0.057220686,-0.011328386
-0.013427734,0.999511719,0.11706543,-0.006510744,0.054023136,-0.012660698
-0.007568359,1.016479492,0.090698242,-0.014104925,0.047894499,-0.015858248
-0.003662109,1.009887695,0.098632813,-0.011040606,0.052957286,-0.017190561
0.005493164,1.00012207,0.096801758,-0.006244282,0.061350855,-0.010395767
-0.008544922,0.989013672,0.096801758,0.004147755,0.066546873,-0.008264067
-0.016601563,0.993530273,0.09765625,0.009876698,0.057220686,-0.007198217
-0.024169922,1.005981445,0.09777832,0.016005335,0.030974132,0.000129501
-0.022827148,1.006103516,0.102539063,0.016671492,0.018317164,0.008389838
-0.008666992,1.007568359,0.098510742,0.018137035,0.002196184,0.006791063
-0.015991211,1.005615234,0.100341797,0.015339179,-0.004465378,0.001994738
-0.012695313,1.006713867,0.099731445,0.00361483,-0.001933985,-0.00533298
-0.006958008,1.005249023,0.104003906,-0.002913501,0.004061421,-0.008796992
-0.005981445,1.004638672,0.101806641,-0.031158524,0.022713795,-0.012394236
-0.017944336,0.999389648,0.106201172,-0.050743516,0.028043044,-0.011061923
-0.007080078,1.003540039,0.124267578,-0.099372919,0.020182401,-0.023319198
-0.001220703,1.001708984,0.132324219,-0.126818555,0.012055296,-0.036375859
0.002563477,0.987548828,0.10534668,-0.193700637,0.026843963,-0.060623945
0.017333984,0.967651367,0.120361328,-0.270175369,0.064415173,-0.059424864
0.014038086,0.998901367,0.135864258,-0.326931878,0.074274285,-0.065020576
0.017578125,1.020385742,0.167480469,-0.446040607,0.057087455,-0.110718891
0.043334961,1.010009766,0.170898438,-0.585000791,0.051092049,-0.153086426
0.053710938,0.985229492,0.156982422,-0.657745048,0.078937378,-0.175202812
0.053466797,0.961547852,0.176147461,-0.791509214,0.169401391,-0.176934818
0.050292969,0.965454102,0.169189453,-0.887968632,0.219096643,-0.174536656
0.051147461,0.950805664,0.206176758,-1.074758831,0.308095112,-0.212907253
-0.005004883,0.940551758,0.227783203,-1.279402017,0.387900625,-0.222766365
