AccelX,AccelY,AccelZ,GyroX,GyroY,GyroZ
-0.052978516,0.991455078,0.205932617,0.035220478,0.032356806,-0.014635985
-0.053833008,0.99987793,0.200195313,0.017367492,0.061667678,-0.021031084
-0.05847168,1.00402832,0.203369141,-0.005281819,0.040617142,-0.015701835
-0.060058594,1.000976563,0.200683594,-0.013275694,0.024629394,-0.009972891
-0.057617188,1.006347656,0.19921875,-0.023667731,0.0157029,0.000685608
-0.054931641,1.008300781,0.194335938,-0.039655479,0.03395558,0.00841302
-0.057617188,1.005615234,0.193603516,-0.044718267,0.033555887,0.01161057
-0.053222656,0.999755859,0.198364258,-0.042320104,0.022764156,0.017206282
-0.055419922,0.99609375,0.196044922,-0.036724392,0.018101063,0.016673357
-0.05078125,0.998168945,0.195068359,-0.0150077,0.028226637,0.015341044
-0.055908203,1.011474609,0.193847656,0.006708992,0.039684524,0.019737675
-0.057373047,1.015991211,0.189086914,0.014702867,0.034888199,0.017872438
-0.060913086,1.00793457,0.192626953,0.02576106,0.023297081,0.005481933
-0.057373047,1.002807617,0.192016602,0.037885103,0.028892793,-0.003977485
-0.058105469,1.007568359,0.190429688,0.058269482,0.048611017,-0.017433841
-0.065307617,1.001342773,0.191162109,0.061067339,0.047944861,-0.017034147
-0.069458008,0.997314453,0.194458008,0.058402714,0.016502288,-0.01197136
-0.057373047,0.99230957,0.204101563,0.059601795,0.001580389,-0.01410306
-0.051757813,0.991210938,0.201171875,0.075056619,0.018101063,-0.022230165
-0.04284668,0.989379883,0.197998047,0.074124,0.045147005,-0.024761559
-0.045166016,0.989135742,0.196166992,0.053872852,0.062067372,-0.016101528
-0.049926758,0.995361328,0.198242188,0.036819253,0.025029087,0.004949008
-0.044921875,1.010009766,0.202148438,0.031223541,0.00917457,0.014674888
-0.044311523,1.013061523,0.194335938,0.029091841,0.0263614,0.024001075
-0.051025391,1.002929688,0.196411133,0.024828441,0.047145473,0.028131244
-0.053833008,0.999023438,0.194091797,0.013370554,0.052474723,0.025999544
-0.053588867,1.002441406,0.194702148,0.006842224,0.043814692,0.028530937
-0.056274414,1.005859375,0.1953125,-0.004482432,0.027027556,0.038656512
-0.060791016,1.009521484,0.194458008,-0.0086126,0.023297081,0.039988824
-0.06237793,1.002441406,0.192504883,-0.019537562,0.02742725,0.033194031
-0.061157227,0.999633789,0.200561523,-0.018604943,0.025162319,0.02559985
-0.056274414,0.996337891,0.195800781,-0.001284882,0.021831538,-0.007308266
-0.053955078,1.006835938,0.1953125,0.014169942,0.035554355,-0.024361865
-0.05090332,1.015380859,0.189941406,0.030424153,0.074990803,-0.041415464
-0.052978516,1.011108398,0.188842773,0.022163816,0.077122502,-0.042214852
-0.051879883,1.009277344,0.190673828,0.008307767,0.030491568,-0.037018833
-0.0546875,1.014526367,0.1953125,0.013770248,0.010506882,-0.033821283
-0.045532227,1.012573242,0.19140625,0.026293985,0.0284931,-0.032755433
-0.050048828,0.999511719,0.184082031,0.017500723,0.061667678,-0.028625265
-0.050415039,1.005859375,0.187255859,0.009107155,0.055272579,-0.022896322
-0.049926758,1.00390625,0.18737793,0.005776374,0.035154662,-0.015568603
-0.048217773,0.999511719,0.198364258,0.020964735,0.007575795,-0.004910104
-0.045410156,0.984619141,0.193359375,0.02789276,0.019166913,-0.000113779
-0.049682617,0.977661133,0.197875977,0.020032116,0.045147005,0.009212407
-0.055175781,0.979248047,0.194213867,0.00431083,0.032223574,0.013875501
-0.055541992,0.987792969,0.191162109,0.001379743,0.026627862,0.017339513
-0.059448242,0.990600586,0.196044922,0.003777905,0.030358337,0.018538594
-0.055541992,0.983398438,0.188720703,0.011372086,0.031290956,0.013609038
-0.05859375,0.989624023,0.185913086,0.012304704,0.039418061,0.001751458
-0.061157227,0.990234375,0.182617188,-0.004882126,0.047145473,0.019604444
-0.063720703,0.990112305,0.18359375,-0.017672325,0.031290956,0.032261412
-0.067504883,0.985229492,0.178222656,-0.030462524,-0.025465553,0.047183311
-0.055786133,0.983642578,0.183837891,-0.012876,-0.045849933,0.032794337
-0.046142578,0.995117188,0.181762695,0.027759528,0.007842257,0.007213939
-0.048461914,1.006225586,0.177856445,0.048676833,0.030624799,-0.002645173
-0.050292969,1.01159668,0.180541992,0.065863663,0.019166913,-0.00770796
-0.05090332,1.018676758,0.182739258,0.0719923,0.001180695,-0.008240885
-0.045532227,1.021240234,0.195556641,0.088646205,0.00064777,-0.002645173
-0.039916992,1.029418945,0.189941406,0.095707461,0.015969363,0.000552377
-0.045288086,1.02331543,0.196166992,0.096240386,0.019833069,-0.00344456
-0.035888672,1.041015625,0.201049805,0.085715118,0.026894325,-0.021564009
-0.030761719,1.054199219,0.204101563,0.097173005,0.028093406,-0.038484377
-0.024414063,1.045043945,0.19543457,0.091177599,0.04567993,-0.063665081
-0.024047852,1.040527344,0.193115234,0.068661519,0.053807035,-0.065930012
-0.034179688,1.037109375,0.204711914,0.043614046,0.046212855,-0.041681927
-0.045288086,1.017700195,0.202026367,0.025494597,0.013171507,-0.010639047
-0.049682617,0.989257813,0.192993164,-0.015140931,-0.005747329,0.014541657
-0.051879883,0.979248047,0.199584961,-0.050980135,-0.002949473,0.016140432
-0.056030273,0.98828125,0.190917969,-0.067900502,0.000781002,0.010145026
-0.057250977,0.995239258,0.196044922,-0.062704484,0.017967832,-0.016101528
-0.05871582,0.995483398,0.190673828,-0.044585035,0.044480848,-0.02702649
-0.057495117,1.006225586,0.189453125,-0.015673856,0.09084532,-0.023429247
-0.059692383,1.014892578,0.192382813,-0.005681513,0.077788659,-0.017833534
-0.063110352,1.00793457,0.195922852,-0.004882126,0.017301675,-0.015302141
-0.062744141,0.994384766,0.195068359,-0.015940319,0.016369057,-0.013836597
-0.059936523,0.994873047,0.202270508,-0.019670793,0.08218529,-0.004377179
-0.058837891,1.003662109,0.207397461,-0.021136337,0.104168444,0.006014858
-0.066040039,0.991210938,0.210693359,-0.064036796,0.070993865,0.021869375
-0.062255859,0.990356445,0.210693359,-0.102274162,0.038751905,0.023601381
-0.051513672,1.009643555,0.243774414,-0.082822401,0.083251139,0.018272132
-0.04296875,1.028320313,0.248168945,-0.085620257,0.13054823,0.020137369
-0.058837891,1.041015625,0.266235352,-0.138246597,0.188770282,0.0266657
-0.068237305,1.033447266,0.275390625,-0.180081207,0.164388965,0.020537063
-0.08190918,1.027954102,0.277954102,-0.310781054,0.08111944,0.001618227
-0.081787109,1.032226563,0.282470703,-0.378329293,0.053673804,-0.014902447
-0.055297852,1.045166016,0.274291992,-0.496905097,0.099771813,-0.049276107
-0.039306641,0.922729492,0.266479492,0.753603327,-0.162693731,0.040255286
-0.170654297,0.810302734,-0.595214844,1.882071935,-0.436217468,0.092748395
0.049804688,0.734130859,0.448242188,1.80093411,0.48174578,0.091016389
-0.165649414,1.037353516,0.426757813,1.441875916,0.713168445,-0.106965234
-0.185058594,1.071777344,0.440551758,1.02779322,-0.239168463,-0.187303673
-0.141601563,1.126831055,0.329223633,0.741479284,-0.551462491,-0.197562478
-0.039794922,1.118530273,0.271484375,0.137275608,-0.410637069,-0.197828941
-0.01940918,1.092407227,0.27746582,-0.112000043,-0.20239664,-0.211551758
-0.014770508,1.109619141,0.256835938,-0.469992387,0.043148536,-0.227539507
-0.036376953,1.112915039,0.232543945,-0.590033734,0.079920358,-0.203824346
-0.041992188,1.083984375,0.203491211,-0.766964822,0.059535979,-0.126550227
-0.042114258,1.051269531,0.190795898,-0.817193,0.041816224,-0.090844254
-0.044189453,1.03918457,0.187744141,-0.882609539,0.03821898,0.009345639
-0.047119141,1.01574707,0.197631836,-0.862091928,0.042615611,0.063437522
-0.047973633,0.986083984,0.196655273,-0.790147058,0.048078092,0.162561565
-0.047241211,0.944702148,0.210693359,-0.741650886,0.037952518,0.18987397
-0.051879883,0.930786133,0.208740234,-0.601225159,0.013837663,0.194537063
-0.054321289,0.884277344,0.202636719,-0.535941851,-0.002016855,0.174152683
-0.060546875,0.872924805,0.201416016,-0.390320105,0.012238888,0.111933694
-0.054443359,0.883789063,0.195556641,-0.312246598,0.051408873,0.079158809
-0.060302734,0.908081055,0.169311523,-0.203929599,0.128016836,0.025866312
-0.060180664,0.933105469,0.174316406,-0.146906628,0.128816224,0.005082239
-0.067993164,0.981567383,0.173706055,0.016967798,0.088313927,-0.042747776
-0.069213867,0.986816406,0.169677734,0.13527714,0.068595703,-0.060733994
-0.063964844,0.981079102,0.158691406,0.159391994,0.049010711,-0.060067838
-0.052612305,0.992675781,0.154907227,0.178577293,0.026494631,-0.055537976
-0.049560547,1.013549805,0.14074707,0.181375149,0.03821898,-0.045545633
-0.055297852,1.015014648,0.159423828,0.208021397,0.068329241,-0.013570135
-0.060913086,1.025634766,0.151367188,0.183906542,0.077255734,0.016007201
-0.081298828,1.052612305,0.207763672,0.04294789,-0.039987758,0.107137369
-0.103759766,1.039794922,0.216186523,-0.046983198,-0.138445645,0.146840279
-0.095458984,1.086181641,0.321655273,-0.385923474,-0.177082705,0.139912254
-0.097412109,1.092895508,0.295776367,-0.588967884,-0.079024512,0.092615164
-0.137084961,1.078125,0.107421875,-0.937367579,0.103102594,-0.009306735
-0.199707031,1.052612305,0.350830078,-1.204629447,0.096840726,-0.043547164
-0.227172852,1.048583984,0.375732422,-1.853065895,-0.069698325,-0.174646705
-0.202148438,0.979492188,0.408569336,-2.209193001,-0.066767237,-0.28043231
-0.187133789,0.950561523,0.396484375,-2.822989327,0.090578858,-0.442441498
-0.180175781,1.003662109,0.303833008,-3.064804029,0.160791722,-0.466689584
-0.149902344,1.073730469,0.294555664,-3.452773401,0.307479317,-0.475349615
-0.032470703,1.067260742,0.411743164,-3.588669267,0.340653896,-0.525044867
-0.059936523,0.984619141,0.536376953,-3.80277187,0.243128628,-0.587530319
-0.113769531,1.038452148,0.620605469,-3.871652422,0.167852977,-0.580335832
-0.100585938,1.051757813,0.623535156,-3.837545224,-0.024000009,-0.446571667
-0.021240234,0.942382813,0.67980957,-3.647957169,-0.337226656,-0.267908573
-0.015258789,0.849243164,0.778442383,-3.611718271,-0.476053609,-0.230070901
-0.042358398,0.692871094,0.896362305,-3.622243539,-0.335894343,-0.220478251
-0.030517578,0.693969727,0.84765625,-3.642361457,-0.063036763,-0.222210258
-0.068359375,0.673950195,0.889892578,-3.610385959,0.321202135,-0.192499691
-0.080444336,0.643554688,0.939208984,-3.564554412,0.255519134,-0.178243948
-0.114501953,0.574829102,0.945922852,-3.369637107,-0.230108738,-0.165720212
-0.123779297,0.534423828,0.952880859,-3.279572789,-0.508029106,-0.155461406
-0.178222656,0.380371094,1.042724609,-3.371235882,-0.742382859,-0.089511942
-0.104980469,0.287841797,0.958374023,-3.550565132,-0.59223125,-0.08498208
-0.052856445,0.264526367,0.921264648,-3.733091932,-0.1561654,-0.13547672
-0.114624023,0.276855469,1.042114258,-3.740952575,-0.0606386,-0.139873351
-0.103271484,0.327636719,1.012451172,-3.744150125,-0.261551311,-0.068194943
-0.112304688,0.250854492,1.039428711,-3.8263538,-0.463663103,-0.009706429
-0.049926758,0.037963867,1.117797852,-3.922946449,-0.579973976,0.064636603
-0.00012207,-0.021118164,1.082397461,-3.947993923,-0.507762644,0.045051611
-0.054199219,-0.032836914,0.987304688,-3.909756557,-0.341623287,-0.020231697
-0.073730469,-0.020629883,0.967163086,-3.839010768,-0.352148555,0.005748395
-0.040527344,-0.168823242,1.047851563,-3.783586572,-0.553727422,0.079558502
0.026977539,-0.254516602,1.079345703,-3.75654063,-0.593963257,0.11259985
0.038452148,-0.295288086,1.069335938,-3.581208317,-0.531477805,0.158964322
-0.008056641,-0.334838867,1.001464844,-3.476088868,-0.437283318,0.150304291
-0.047485352,-0.411376953,0.954223633,-3.122093462,-0.172686074,0.105805057
-0.098022461,-0.470458984,1.102294922,-2.758372175,-0.013607972,-0.016501222
-0.036010742,-0.614013672,0.987182617,-2.544402803,0.032223574,-0.090178098
0.030273438,-0.690551758,0.948730469,-2.517356861,-0.000951005,-0.074590043
-0.043823242,-0.555053711,0.866699219,-2.567451807,-0.173618692,-0.029691115
-0.052368164,-0.564453125,0.858032227,-2.511761149,-0.238102613,-0.011571666
-0.021240234,-0.602783203,0.856811523,-2.389721333,-0.222114864,-0.000646704
0.005737305,-0.694946289,0.788696289,-2.361076616,-0.111399703,0.009212407
0.027954102,-0.736816406,0.735473633,-2.375065896,-0.059306288,-0.007974423
-0.025878906,-0.719604492,0.672729492,-2.468594227,-0.138045951,-0.02489479
-0.038818359,-0.700683594,0.622558594,-2.499104181,-0.241966319,-0.013436904
-0.014160156,-0.719970703,0.62512207,-2.557459464,-0.324169994,0.039322668
0.065551758,-0.780883789,0.606323242,-2.611284886,-0.340290974,0.097278257
0.094116211,-0.832763672,0.605834961,-2.741585039,-0.338958662,0.192138901
0.051513672,-0.900268555,0.528076172,-2.824188408,-0.326035232,0.234906129
0.050415039,-0.884399414,0.505737305,-2.78248703,-0.334961725,0.227844873
0.01171875,-0.89074707,0.471679688,-2.691889786,-0.277938754,0.190540126
0.005371094,-0.899536133,0.398803711,-2.684295605,-0.233039826,0.210791274
-0.018188477,-0.932739258,0.272338867,-2.682696831,-0.144574282,0.234772898
-0.016357422,-0.935791016,0.292602539,-2.690024549,-0.10780246,0.228377798
-0.02355957,-0.969116211,0.291748047,-2.621143997,-0.153234313,0.2027974
-0.026977539,-1.004150391,0.283447266,-2.557725927,-0.264215936,0.162561565
-0.018066406,-1.016845703,0.242797852,-2.3196417,-0.613415018,0.089684077
-0.04284668,-1.048828125,0.227416992,-2.234506937,-0.732656978,0.091416083
-0.059082031,-1.03918457,0.198364258,-2.018539096,-0.689223594,0.136048548
-0.020263672,-1.040039063,0.07409668,-1.821756554,-0.53960491,0.130186374
0.017089844,-1.095825195,0.047363281,-1.352116431,-0.226644726,0.105138901
-0.030883789,-1.05871582,0.042358398,-1.020637104,-0.219983164,0.122059268
-0.055786133,-1.063842773,0.053344727,-0.874882127,-0.281535997,0.121926037
-0.080444336,-1.081542969,0.013061523,-0.516356858,-0.251558968,0.080091427
-0.020019531,-1.094970703,0.001342773,-0.017672325,-0.125788677,0.00947887
-0.029418945,-1.08984375,0.039550781,0.463292454,-0.019336916,0.0202706
-0.032226563,-1.076538086,0.09362793,0.722160754,0.057004585,0.019471213
-0.040649414,-1.081176758,0.179077148,1.333292455,0.284430313,-0.024228634
-0.032958984,-1.082397461,0.167602539,1.663306238,0.434981615,-0.051407807
-0.030883789,-1.050537109,0.041259766,2.282831507,0.698379777,-0.079519599
-0.030151367,-1.063598633,0.051391602,2.57207653,0.80283307,-0.086181161
-0.035888672,-1.065429688,0.183227539,3.155096439,0.848398154,-0.08498208
-0.03515625,-1.07434082,0.254638672,3.429552795,0.842935673,-0.066462937
-0.015869141,-1.098510742,0.264160156,3.927171479,1.004278706,-0.024495097
-0.022827148,-1.065307617,0.21887207,4.110897359,1.1722833,0.006681014
0.045288086,-1.014892578,0.282104492,4.285163822,1.385719748,0.043719299
0.045776367,-0.919433594,0.497314453,4.361905017,1.298453285,0.111001075
-0.040283203,-0.813476563,0.418701172,4.361905017,0.846799379,0.235705516
-0.058837891,-0.735229492,0.491943359,4.361905017,1.16149157,0.298590662
-0.054931641,-0.755493164,0.492675781,4.361905017,1.426222045,0.351883158
-0.014282227,-0.765625,0.559692383,4.361905017,1.175347619,0.581040892
-0.109375,-0.671386719,0.62097168,4.361905017,0.496267985,0.655783618
-0.039672852,-0.499267578,0.861938477,4.361905017,0.063266453,0.622875502
-0.044189453,-0.36328125,0.716796875,4.361905017,0.698779471,0.663244568
-0.117431641,-0.387451172,0.682373047,4.361905017,1.013871355,0.698817309
-0.257446289,-0.315551758,0.744384766,4.361905017,0.684390497,0.801671827
-0.213012695,-0.026123047,1.049804688,4.361905017,0.014237357,0.839109805
-0.192504883,0.073120117,1.060791016,4.361905017,-0.441147024,0.804069989
-0.080444336,0.162719727,0.977416992,4.361905017,-0.081289443,0.774492653
-0.141601563,0.170410156,0.937133789,4.361905017,0.442309333,0.818991888
-0.252441406,0.240112305,1.003540039,4.361905017,0.249656959,0.847236911
-0.221191406,0.358398438,1.035766602,4.361905017,-0.530545186,0.862824966
-0.100463867,0.502441406,1.041503906,4.361905017,-0.508295569,0.82139005
-0.05090332,0.502929688,1.018432617,4.361905017,-0.2410337,0.813396176
-0.110961914,0.557983398,0.963256836,4.361905017,-0.213188371,0.856429866
-0.210571289,0.594604492,0.920776367,4.350580361,-0.530012261,0.841241505
-0.172973633,0.805664063,0.996459961,4.168586487,-1.111033701,0.751843343
-0.085571289,0.867797852,1.030517578,4.042682964,-1.042952537,0.707077646
-0.057128906,0.895629883,0.966186523,3.574508385,-0.497770301,0.600226191
-0.106079102,0.88269043,0.909790039,3.311909609,-0.37852834,0.555327263
-0.100830078,0.893310547,0.711547852,2.977898889,-0.502566625,0.51642374
-0.069580078,0.963500977,0.723144531,2.921408843,-0.492174589,0.487779024
-0.014404297,0.987915039,0.719238281,2.778984647,-0.206127115,0.387722362
-0.050415039,1.005981445,0.687011719,2.63642722,-0.221448708,0.355746864
-0.083251953,0.971435547,0.583007813,2.298419562,-0.510693731,0.336028641
-0.086425781,0.945678711,0.534057617,2.145869792,-0.636996947,0.315377798
-0.020996094,0.963989258,0.51159668,2.040084187,-0.691754987,0.258754521
0.014770508,0.971313477,0.564453125,2.015569638,-0.619676886,0.233440585
0.047607422,0.952636719,0.5078125,1.885402716,-0.357078111,0.161895409
0.036865234,0.977172852,0.408447266,1.724192915,-0.293127115,0.109535532
0.025512695,0.988647461,0.408569336,1.685689087,-0.368402766,0.103540126
0.003540039,1.037719727,0.362670898,1.663439469,-0.441946411,0.101275195
0.0078125,1.021240234,0.396240234,1.5787044,-0.544667698,0.071164934
0.062744141,0.975463867,0.319702148,1.537269484,-0.566517621,0.033593724
0.061401367,0.971679688,0.280395508,1.447338397,-0.502166932,-0.026893259
0.048583984,0.937011719,0.199951172,1.413097968,-0.504032169,-0.039017302
0.032958984,0.932983398,0.184936523,1.353277141,-0.588634007,-0.059001988
0.022827148,1.002197266,0.290283203,1.346349117,-0.565984696,-0.077920824
0.047241211,0.994384766,0.272827148,1.265744216,-0.257820836,-0.143603826
0.037841797,0.983154297,0.18737793,1.15982538,-0.088084236,-0.162522662
0.012817383,0.98059082,0.16809082,0.947854476,-0.125788677,-0.175446092
0.026123047,0.951416016,0.134887695,0.876176069,-0.250493118,-0.179576261
0.041748047,0.952270508,0.103515625,0.801566574,-0.286598784,-0.185838129
0.052612305,1.018066406,0.120727539,0.759598733,-0.227444114,-0.184772279
0.032958984,1.034179688,0.153808594,0.59599077,-0.142442582,-0.18277381
0.025512695,1.004150391,0.079345703,0.356973924,-0.031061265,-0.194231697
0.0390625,1.014648438,0.052001953,0.213483878,0.011839195,-0.172248542
0.057983398,1.033935547,0.048217773,0.152996895,0.028892793,-0.159858037
0.03515625,1.055541992,0.010131836,-0.036058236,0.079653896,-0.128415464
-0.004150391,1.045776367,0.026245117,-0.165425771,0.081519133,-0.106698772
-0.030761719,1.044921875,0.092895508,-0.4564028,0.029159256,-0.055404744
-0.019287109,1.080078125,0.125244141,-0.597228221,0.046879011,-0.045545633
-0.018432617,1.139648438,0.148071289,-0.763900503,0.126018368,-0.057802907
-0.032836914,1.146240234,0.190917969,-1.145075083,0.300817755,-0.124152064
-0.029174805,1.087158203,0.173217773,-1.512260382,0.314673804,-0.146668144
-0.018920898,1.082885742,0.166625977,-1.673470183,0.299885137,-0.133478251
-0.020385742,1.095947266,0.193725586,-1.993358392,0.293356806,-0.125617608
-0.03503418,1.051269531,0.310302734,-2.169889785,0.326398154,-0.149332769
-0.033569336,1.046630859,0.363769531,-2.537741241,0.468689119,-0.206222509
0.010864258,0.9921875,0.393188477,-2.698284886,0.536770283,-0.225807501
0.018798828,0.993774414,0.360473633,-2.995257321,0.654946393,-0.260847317
-0.051391602,1.013793945,0.348632813,-3.149272635,0.602453284,-0.282031085
-0.049926758,0.998291016,0.421508789,-3.373500813,0.286162319,-0.30627917
-0.086303711,0.92175293,0.574829102,-3.508863754,0.153996928,-0.309876414
-0.076416016,0.877075195,0.654418945,-3.850068961,0.110430313,-0.280299078
-0.038330078,0.788085938,0.676025391,-3.991027613,0.177045933,-0.247923887
-0.013671875,0.810424805,0.661621094,-4.24083619,0.27230627,-0.234733994
-0.049682617,0.826904297,0.725097656,-4.369404337,0.085649302,-0.28043231
-0.049072266,0.769042969,0.877319336,-4.369404337,-0.113664634,-0.267642111
-0.087402344,0.725830078,0.888183594,-4.369404337,-0.115796334,-0.21714747
-0.040283203,0.610229492,0.973754883,-4.369404337,0.152398153,-0.131746245
0.005126953,0.627807617,0.966308594,-4.369404337,0.302816224,-0.130547164
0.052978516,0.571411133,0.917114258,-4.369404337,0.126018368,-0.181175035
0.024780273,0.474365234,1.041748047,-4.369404337,-0.088883623,-0.171715617
-0.069458008,0.368408203,1.100097656,-4.369404337,-0.253823899,-0.130813627
-0.065673828,0.326293945,1.054443359,-4.369404337,-0.280470147,0.005348701
-0.05859375,0.216918945,1.03515625,-4.369404337,-0.199199091,0.050514092
-0.056884766,0.161865234,1.099365234,-4.369404337,0.030091874,-0.010106123
-0.037109375,0.036865234,1.077270508,-4.359411994,0.047278705,-0.096173504
-0.032592773,-0.021240234,1.08203125,-4.300657017,-0.081422674,-0.064331237
-0.090087891,-0.129638672,1.135986328,-4.247497752,-0.221581939,-0.028625265
-0.061889648,-0.158325195,1.102539063,-4.152370646,-0.308182245,-0.015968297
-0.005004883,-0.210693359,1.041137695,-4.090018425,-0.245030637,-0.035952983
-0.037353516,-0.273681641,0.99621582,-4.043920416,-0.083687605,-0.039283764
-0.047851563,-0.413452148,0.965454102,-4.070033739,-0.073695262,-0.005443029
-0.102294922,-0.372802734,0.964111328,-4.067102652,-0.288597253,0.075428334
-0.049194336,-0.477050781,0.95300293,-3.961849972,-0.459532935,0.1094023
-0.029296875,-0.569458008,0.888916016,-3.892036802,-0.475787146,0.129520218
0.010253906,-0.595703125,0.850341797,-3.794511533,-0.324702919,0.222648855
-0.05065918,-0.683105469,0.846435547,-3.715372177,-0.225712108,0.239169529
-0.049926758,-0.698242188,0.858886719,-3.514725928,-0.17761563,0.204262944
-0.077148438,-0.759521484,0.696289063,-3.424261916,-0.240900469,0.176417614
-0.07434082,-0.793457031,0.583862305,-3.320741242,-0.365471679,0.152835685
-0.011962891,-0.740844727,0.533569336,-3.278107245,-0.355745798,0.161895409
0.016723633,-0.792724609,0.572021484,-3.193505407,-0.338026043,0.202264475
-0.004272461,-0.822143555,0.537719727,-3.127023018,-0.36667076,0.183079176
-0.041870117,-0.848266602,0.457519531,-2.95542118,-0.40424197,0.128854061
-0.055786133,-0.843139648,0.415283203,-2.873483967,-0.396114864,0.110334919
-0.019775391,-0.846313477,0.380859375,-2.732658546,-0.428623287,0.081956665
0.012939453,-0.89855957,0.419555664,-2.664577382,-0.459532935,0.073829559
0.081176758,-0.974853516,0.411376953,-2.532811685,-0.495238907,0.09647887
0.044555664,-0.981933594,0.365112305,-2.451540628,-0.473655446,0.112466619
-0.034057617,-0.917480469,0.265991211,-2.235039862,-0.348151618,0.115397706
-0.057861328,-0.916503906,0.202636719,-1.979502343,-0.196800928,0.094213939
-0.05859375,-0.947753906,0.218139648,-1.863857626,-0.191071985,0.074229253
-0.047607422,-0.98046875,0.187133789,-1.656816278,-0.328166932,0.055843342
-0.046386719,-0.999755859,0.152099609,-1.518389019,-0.365071985,0.039189437
-0.039306641,-0.969360352,0.092651367,-1.393418115,-0.354413486,0.013475807
-0.041381836,-0.973510742,0.072509766,-1.125623322,-0.209457896,-0.025028021
-0.015991211,-1.002563477,0.072998047,-1.027165435,-0.096477804,-0.028891727
-0.006713867,-1.007568359,0.090209961,-0.807333888,0.014237357,-0.01090551
-0.016723633,-1.036254883,0.042480469,-0.579242004,0.003045933,0.009745332
-0.026855469,-1.078125,-0.020874023,-0.2802711,0.041949455,-0.015435372
-0.01965332,-1.093017578,-0.010620117,-0.120660074,0.084316989,-0.030357271
0.002197266,-1.098999023,0.056152344,0.217880509,0.168785596,-0.057936138
-0.00769043,-1.09362793,0.063476563,0.390281734,0.232470129,-0.067928481
-0.029541016,-1.087646484,0.01159668,0.765061214,0.3764931,-0.092176567
-0.04309082,-1.093139648,0.020019531,0.938128595,0.42911944,-0.111228634
-0.034790039,-1.086914063,0.036132813,1.272006084,0.433649302,-0.147067838
-0.022216797,-1.071777344,0.031860352,1.452534415,0.406470129,-0.169317455
-0.007324219,-1.03503418,0.119506836,1.825048964,0.472952518,-0.191433841
0.010253906,-1.027832031,0.16003418,1.999448658,0.581136286,-0.182640579
0.01184082,-1.006591797,0.154907227,2.282431813,0.788577327,-0.132678864
-0.002075195,-0.994873047,0.151367188,2.406736561,0.854793254,-0.103900916
-0.022705078,-0.957641602,0.126342773,2.664805474,0.828013774,-0.052873351
-0.01184082,-0.935424805,0.240234375,2.815490007,0.690785597,-0.028358802
0.013305664,-0.903198242,0.362670898,3.189336868,0.649483912,-0.004110717
0.067626953,-0.887939453,0.443359375,3.348414969,0.806163851,0.034526343
0.046875,-0.893798828,0.503051758,3.619540544,1.234235827,0.128187905
0.003295898,-0.867797852,0.461425781,3.876277145,1.448604893,0.229843342
-0.049560547,-0.799438477,0.446533203,4.014171479,1.441676869,0.292062331
-0.085449219,-0.735351563,0.55480957,4.297021402,1.04877794,0.389054674
-0.030639648,-0.753417969,0.693969727,4.361905017,0.787378246,0.444745333
-0.057250977,-0.72668457,0.723144531,4.361905017,0.917411937,0.42835789
-0.063842773,-0.727172852,0.728515625,4.361905017,1.484843791,0.407573817
-0.038208008,-0.651123047,0.702514648,4.361905017,1.55892036,0.486579942
-0.187255859,-0.539672852,0.763671875,4.361905017,0.782315459,0.656316543
-0.199584961,-0.513427734,0.820800781,4.361905017,0.429252671,0.682563097
-0.215942383,-0.391357422,0.912353516,4.361905017,0.349447158,0.656316543
-0.26184082,-0.2734375,0.952636719,4.361905017,0.48067993,0.644458963
-0.268676758,-0.238525391,0.987182617,4.361905017,0.574341492,0.694953603
-0.207885742,-0.146972656,0.992675781,4.361905017,0.120822349,0.842040892
-0.252685547,-0.083984375,0.97265625,4.361905017,-0.086751924,0.844039361
-0.236450195,0.02355957,1.034790039,4.361905017,-0.072496181,0.772760647
-0.208251953,0.06628418,1.029418945,4.361905017,0.039151599,0.743316543
-0.217773438,0.172119141,1.087768555,4.357241923,0.062067372,0.735988825
-0.274291992,0.260986328,1.109863281,4.290759534,-0.334828494,0.704812715
-0.199707031,0.3359375,1.01965332,4.259450193,-0.508295569,0.671504904
-0.130859375,0.357666016,0.930664063,4.183908079,-0.338425737,0.661645793
-0.14855957,0.461669922,0.841430664,4.126485415,-0.222914251,0.693488059
-0.216186523,0.539428711,0.931274414,3.967807007,-0.37306586,0.689890816
-0.218139648,0.627197266,1.05871582,3.939295521,-0.500035232,0.642593725
-0.13671875,0.613891602,0.935546875,3.935298584,-0.379993884,0.529746864
-0.039306641,0.692626953,0.788208008,3.876010682,-0.176283317,0.554394644
-0.113525391,0.736328125,0.794677734,3.755836103,-0.250359887,0.59263201
-0.147094727,0.789916992,0.787109375,3.403972397,-0.672303226,0.638063863
-0.157836914,0.901611328,0.829833984,3.316039778,-0.770228188,0.63020322
-0.05480957,0.925292969,0.773803711,3.213451723,-0.579041358,0.606354828
-0.005981445,0.915527344,0.649536133,3.170684494,-0.478052077,0.597428335
-0.024780273,0.908447266,0.575073242,3.024796286,-0.529346105,0.625007201
-0.037475586,0.890136719,0.559326172,2.919810068,-0.5932971,0.630469682
-0.013549805,0.904296875,0.585693359,2.818820788,-0.519220531,0.625673358
0.033325195,0.907836914,0.431640625,2.699445596,-0.346019918,0.616480402
0.030029297,0.946533203,0.413696289,2.621638552,-0.356678417,0.617812714
-0.010986328,1.009887695,0.48449707,2.523980052,-0.43222053,0.610085303
-0.008544922,1.050170898,0.489257813,2.34331849,-0.546133241,0.546667232
0.009033203,1.036499023,0.389648438,2.216748812,-0.457134772,0.45087397
0.030761719,1.024047852,0.349365234,2.160391997,-0.40211027,0.416766772
0.090698242,0.983764648,0.27746582,1.993719715,-0.310047483,0.384125118
0.103271484,0.998046875,0.30480957,1.899924921,-0.249960193,0.363074582
0.082641602,1.058227539,0.337158203,1.723793221,-0.065434925,0.261685608
0.05090332,1.106933594,0.295776367,1.621338397,0.003045933,0.193870907
0.036376953,1.118530273,0.251342773,1.35207806,0.00064777,0.089950539
-0.031860352,1.060546875,0.215087891,1.196730433,-0.052245032,0.043586067
0.00793457,1.055053711,0.165771484,0.958646207,-0.180813179,-0.090311329
0.026000977,1.031738281,0.162719727,0.864318488,-0.207059734,-0.134943795
0.025878906,1.056884766,0.115844727,0.643154629,-0.148038294,-0.185038741
-0.012207031,1.048583984,0.124145508,0.519249575,-0.151235844,-0.196230166
0.002807617,1.035766602,0.154541016,0.28889276,-0.228909657,-0.229804438
0.047851563,1.057861328,0.121337891,0.186704398,-0.216385921,-0.250854974
0.090698242,1.068969727,0.104125977,0.060934107,-0.031727421,-0.287493565
0.080200195,1.048706055,0.08972168,0.00111328,0.21115313,-0.286827409
0.031738281,1.054443359,0.075317383,-0.071497746,0.183307801,-0.281098466
0.032714844,1.03125,0.052612305,-0.13851306,-0.012941816,-0.272038742
0.092651367,1.047729492,0.009521484,-0.16862332,0.108831538,-0.247390962
0.082641602,1.067138672,0.066894531,-0.227777991,0.123486974,-0.226873351
0.028686523,1.042114258,0.147949219,-0.477986261,0.096973957,-0.18810306
0.060913086,1.042724609,0.114257813,-0.630669263,0.209820818,-0.160657424
0.030273438,1.052001953,0.10168457,-0.912053643,0.39261408,-0.149865694
-0.037231445,1.068115234,0.087036133,-1.075395144,0.330395091,-0.160657424
-0.061645508,1.098022461,0.078369141,-1.473090397,0.222611017,-0.180109186
-0.092651367,1.071777344,0.19128418,-1.986430367,0.376226638,-0.178910104
-0.086547852,1.063720703,0.199584961,-2.227445681,0.466024494,-0.178510411
-0.06237793,1.079956055,0.228637695,-2.658581976,0.498666148,-0.207554821
0.001953125,1.079956055,0.304321289,-3.01124507,0.504794785,-0.265110717
-0.099609375,1.015258789,0.202758789,-3.217620262,0.472819287,-0.300949921
-0.118774414,0.970458984,0.294433594,-3.575879068,0.375826944,-0.343583918
-0.055908203,0.95300293,0.473022461,-3.715105714,0.315073498,-0.348247011
0.052368164,0.94543457,0.744873047,-3.941732054,0.254719746,-0.326130625
0.095092773,0.923339844,0.813232422,-4.119728992,0.630698307,-0.337055587
-0.010620117,0.878417969,0.43762207,-4.333165439,0.764462473,-0.358772279
-0.043457031,0.760620117,0.546020508,-4.369404337,0.355842258,-0.436046399
-0.098999023,0.687011719,0.914428711,-4.369404337,0.071260328,-0.472152065
-0.021118164,0.711914063,0.919311523,-4.369404337,0.183707495,-0.486008114
0.040161133,0.697143555,0.950073242,-4.369404337,0.471220512,-0.478280702
-0.000854492,0.651367188,0.985107422,-4.369404337,0.689986209,-0.452433841
-0.029907227,0.475708008,0.985961914,-4.369404337,0.535571201,-0.44044303
-0.083862305,0.397705078,1.002929688,-4.369404337,0.023030619,-0.426054056
-0.124389648,0.333129883,1.130615234,-4.369404337,-0.170954068,-0.414063244
-0.115844727,0.246704102,1.166503906,-4.369404337,-0.014807054,-0.442041805
-0.134765625,0.106079102,1.051513672,-4.369404337,0.520915765,-0.54036646
-0.115478516,0.057983398,0.994873047,-4.369404337,0.674664617,-0.574606889
-0.178833008,0.028686523,1.018798828,-4.369404337,0.405004586,-0.585665082
-0.147094727,0.008666992,1.167358398,-4.369404337,0.14773506,-0.556620672
-0.095214844,-0.027832031,1.111206055,-4.369404337,-0.181879029,-0.423122968
-0.07421875,-0.235961914,0.92199707,-4.369404337,-0.108468616,-0.376225572
-0.099365234,-0.292602539,0.825439453,-4.369404337,0.222211323,-0.322666613
-0.078613281,-0.418701172,0.875488281,-4.369404337,0.269908108,-0.293622203
-0.10168457,-0.426879883,0.97265625,-4.369404337,0.018234294,-0.199427715
-0.11706543,-0.499511719,0.952392578,-4.369404337,-0.389453302,-0.089378711
-0.158081055,-0.624389648,0.799194336,-4.369404337,-0.446609504,-0.077387899
-0.130615234,-0.670410156,0.665771484,-4.369404337,-0.320839213,-0.081118374
-0.11315918,-0.689941406,0.534301758,-4.369404337,-0.087817773,-0.125750839
-0.108886719,-0.669311523,0.525512695,-4.369404337,-0.073562031,-0.148000457
-0.108764648,-0.802001953,0.624267578,-4.369404337,-0.122058202,-0.138541038
-0.118041992,-0.819824219,0.587890625,-4.369404337,-0.196001541,-0.146934607
-0.081542969,-0.900634766,0.443115234,-4.175286419,-0.383457896,-0.13760842
-0.063964844,-0.928955078,0.361450195,-4.039657016,-0.472323134,-0.154928481
-0.108520508,-0.935546875,0.281494141,-3.850068961,-0.588900469,-0.19996064
-0.110473633,-1.009643555,0.277099609,-3.766000048,-0.608751924,-0.18916891
-0.121826172,-0.998291016,0.19921875,-3.52138749,-0.694286381,-0.106032616
-0.11706543,-1.018066406,0.229125977,-3.351517658,-0.773292506,-0.048743182
-0.138549805,-1.042602539,0.24621582,-2.934370644,-0.799272598,0.001484995
-0.10925293,-1.035400391,0.153076172,-2.718003109,-0.696817774,0.018938288
-0.107421875,-1.012451172,0.105834961,-2.353215973,-0.493640132,0.031195562
-0.123779297,-1.033081055,0.058349609,-2.14457585,-0.464062797,0.029996481
-0.124267578,-1.046264648,0.044921875,-1.703580443,-0.516156212,0.023734613
-0.109008789,-1.065795898,0.00793457,-1.259387487,-0.511093425,-0.048343489
-0.087158203,-1.033447266,-0.020996094,-1.063537563,-0.44181318,-0.07432358
-0.079589844,-1.025634766,-0.039306641,-0.664110304,-0.191205216,-0.084449155
-0.114013672,-1.069213867,-0.043823242,-0.429090396,-0.08741808,-0.097372585
-0.119628906,-1.068237305,-0.016235352,0.105566573,-0.060105675,-0.138274576
-0.109863281,-1.052856445,0.008178711,0.380022929,-0.016006135,-0.153862631
-0.092285156,-1.027709961,0.028198242,0.967039775,0.274171507,-0.138141345
-0.10559082,-1.046020508,-0.013916016,1.263612516,0.453234295,-0.133877945
-0.090942383,-1.052001953,0.005249023,1.851295519,0.620439502,-0.141605357
-0.090087891,-1.051025391,0.027587891,2.157327678,0.581535979,-0.151064775
-0.101806641,-1.063964844,0.027832031,2.775387403,0.515719746,-0.195697241
-0.10559082,-1.065185547,0.068847656,3.04891114,0.562350681,-0.226340426
-0.106445313,-1.028442383,0.133056641,3.501231202,0.746343024,-0.274703366
-0.049926758,-1.038208008,0.232055664,3.859090315,0.903422657,-0.280698772
0.041015625,-1.002441406,0.289306641,4.010307773,1.002413468,-0.251121437
-0.003662109,-0.928100586,0.25793457,4.309944833,1.148701371,-0.149599231
0.005737305,-0.942382813,0.415527344,4.361905017,1.0831516,-0.086447623
-0.085449219,-0.844604492,0.57409668,4.361905017,0.845200605,-0.09364211
0.037353516,-0.792602539,0.527954102,4.361905017,0.857457879,-0.05167427
0.110595703,-0.765625,0.536987305,4.361905017,1.178411937,0.213322668
0.028320313,-0.715576172,0.609130859,4.361905017,1.357741187,0.372001076
-0.083007813,-0.731933594,0.663330078,4.361905017,1.251822351,0.52814809
-0.268676758,-0.666625977,0.723388672,4.361905017,0.880640115,0.502034766
-0.257202148,-0.572387695,0.738525391,4.361905017,0.611113315,0.438217002
-0.071533203,-0.463378906,0.783081055,4.361905017,1.26034915,0.615681015
-0.076293945,-0.349731445,0.767333984,4.361905017,1.595825414,0.80846662
-0.270141602,-0.357543945,0.974365234,4.361905017,1.304848385,1.035359423
-0.431152344,-0.212158203,0.987060547,4.361905017,0.701044402,1.03935636
-0.302856445,-0.142822266,0.820922852,4.361905017,0.349047464,1.042420678
-0.164672852,0.048706055,0.631835938,4.361905017,0.531973958,1.116630479
-0.210083008,0.11328125,0.763427734,4.361905017,0.401407342,1.262651919
-0.292724609,0.130615234,0.957519531,4.361905017,-0.189206748,1.252659576
-0.238525391,0.268188477,1.139160156,4.361905017,-0.992324666,1.084788213
-0.018188477,0.456665039,0.796875,4.361905017,-0.564785615,1.006315012
-0.010131836,0.519775391,0.822143555,4.361905017,0.559686056,1.068800464
-0.069213867,0.556640625,0.80480957,4.361905017,0.582068904,1.132351766
-0.243530273,0.642822266,0.927978516,4.361905017,-0.513491587,1.187642731
-0.211303711,0.816772461,0.811035156,4.361905017,-1.056675355,1.114632011
-0.085693359,0.918823242,0.762329102,4.361905017,-0.497770301,1.035759116
-0.168212891,0.961914063,0.686401367,4.146336869,-0.370534466,0.980601383
-0.18737793,0.942993164,0.671386719,3.761032122,-0.859493119,0.86975299
-0.130249023,1.093383789,0.583374023,3.664439472,-1.110101083,0.771295104
-0.032470703,1.084960938,0.571044922,3.539202106,-0.881343043,0.699217002
-0.050292969,1.131103516,0.576538086,2.987491539,-0.46219756,0.552262944
-0.089355469,1.118896484,0.558227539,2.66547163,-0.487111802,0.49057688
-0.113525391,1.082275391,0.31237793,2.257117877,-0.851232782,0.427158809
-0.042602539,1.109741211,0.239013672,2.219679899,-0.838842277,0.402644261
-0.009399414,1.078125,0.322265625,2.064199041,-0.43541808,0.292861719
-0.023193359,1.078369141,0.395751953,1.8524946,-0.347085768,0.227711642
-0.106567383,1.045898438,0.268188477,1.327430281,-0.437816243,0.130053143
-0.062988281,1.011352539,0.207641602,1.152630893,-0.450339979,0.128587599
-0.038208008,1.023681641,0.077758789,1.043514507,-0.418764175,0.108203219
-0.000976563,1.036499023,0.159057617,1.017934109,-0.44394488,0.099809651
0.006958008,0.998046875,0.192749023,0.951052026,-0.413301694,0.076760646
-0.018920898,1.00769043,0.105102539,0.873511444,-0.38066004,0.080224659
-0.025634766,0.987792969,0.102539063,0.742545134,-0.412235844,0.105005669
0.006347656,0.993408203,0.091796875,0.739347584,-0.387588065,0.109002607
0.056152344,0.984008789,0.202758789,0.665937171,-0.177082705,0.088884689
0.027954102,0.986328125,0.17980957,0.572542071,-0.10140736,0.070632009
-0.012451172,1.008056641,-0.002807617,0.334457844,-0.066101081,0.049048548
-0.009887695,1.011230469,0.033569336,0.21907959,-0.088617161,0.053311948
0.017578125,1.029418945,0.096313477,0.011905011,-0.040387452,0.027465087
0.029907227,1.078735352,0.136962891,-0.163826996,0.075923421,1.94518E-05
0.023193359,1.089233398,0.126586914,-0.577909691,0.288294019,-0.099237822
-0.023071289,1.076171875,0.0859375,-0.818392081,0.344384371,-0.152530319
-0.01940918,1.069946289,0.050048828,-1.348519187,0.301883605,-0.244193412
-0.039672852,1.111206055,0.135742188,-1.98563098,0.372096469,-0.293755434
-0.071289063,1.08984375,0.240722656,-2.334297136,0.555022962,-0.321867226
-0.10144043,1.088256836,0.224853516,-2.926510001,0.878908108,-0.411398619
-0.091918945,1.034545898,0.174560547,-3.458235882,0.708638583,-0.505726338
-0.062133789,1.0234375,0.179931641,-3.672604948,0.580070436,-0.530907042
-0.023681641,1.055419922,0.367553711,-3.970376771,0.492004586,-0.533838129
-0.064819336,1.034545898,0.42199707,-4.05084844,0.452168445,-0.528775342
-0.050292969,0.911621094,0.563842773,-4.1850123,0.338788659,-0.53930061
0.003662109,0.849487305,0.76550293,-4.228845378,0.418860635,-0.572475189
0.027832031,0.859008789,0.849365234,-4.255758088,0.65787748,-0.681724806
-0.060302734,0.798706055,0.67980957,-4.311049053,0.689586515,-0.731286828
-0.115112305,0.739257813,0.73815918,-4.369404337,0.684390497,-0.764594638
-0.143798828,0.707763672,0.780151367,-4.369404337,0.662407342,-0.755801376
-0.107055664,0.677368164,0.76940918,-4.369404337,0.395411936,-0.763395557
-0.05871582,0.570678711,0.979125977,-4.369404337,0.312408873,-0.779116843
-0.087768555,0.514404297,0.885375977,-4.369404337,0.229139348,-0.79057473
-0.16418457,0.270141602,0.803466797,-4.369404337,0.084316989,-0.746341958
-0.192993164,0.200195313,0.918212891,-4.369404337,-0.253690668,-0.639090809
-0.11730957,0.238769531,0.933349609,-4.369404337,-0.275140898,-0.583666613
-0.077270508,0.225952148,0.975708008,-4.369404337,-0.166157743,-0.518116843
-0.138916016,0.134399414,1.021606445,-4.369404337,-0.162560499,-0.515585449
-0.17956543,-0.020507813,1.009521484,-4.369404337,-0.169754986,-0.5102562
-0.136230469,-0.180786133,0.97277832,-4.369404337,-0.045450239,-0.506126031
-0.120849609,-0.189941406,0.899047852,-4.369404337,-0.03372589,-0.455231697
-0.089111328,-0.25012207,1.026855469,-4.369404337,-0.275007667,-0.410466001
-0.151000977,-0.38684082,1.041625977,-4.369404337,-0.995255753,-0.280965235
-0.094360352,-0.565063477,0.887329102,-4.369404337,-1.234938755,-0.135876414
-0.025390625,-0.629150391,0.793334961,-4.369404337,-0.996987759,-0.069527256
-0.006958008,-0.790771484,0.802612305,-4.369404337,-0.345620224,0.043452836
0.001708984,-0.859130859,0.812011719,-4.369404337,-0.139245032,0.063304291
-0.13293457,-0.84753418,0.665405273,-4.369404337,-0.254090362,0.012809651
-0.182128906,-0.882324219,0.62512207,-4.369404337,-0.528679949,-0.018366459
-0.163696289,-0.916137695,0.5234375,-4.369404337,-1.005248096,0.013609038
-0.10925293,-0.946899414,0.476074219,-4.369404337,-1.04002145,0.083688671
-0.103027344,-0.993408203,0.375732422,-4.246431902,-0.846569689,0.190007201
-0.015869141,-1.059692383,0.271972656,-4.020471718,-0.74251609,0.186543189
-0.075073242,-1.080444336,0.259155273,-3.587470186,-0.455535998,0.099809651
-0.1640625,-1.036376953,0.185058594,-3.428791778,-0.354280255,0.043452836
-0.198730469,-0.978881836,0.133544922,-3.048150124,-0.599159275,-0.002911636
-0.080322266,-1.000610352,0.142333984,-2.829517658,-0.809931098,0.042653449
-0.062988281,-1.034545898,0.132568359,-2.357879066,-0.875480868,0.114998012
-0.057617188,-1.08996582,0.088989258,-2.093947978,-0.644058203,0.10180812
-0.105834961,-1.091430664,0.074584961,-1.579142465,-0.186009198,0.018938288
-0.158081055,-1.034179688,0.009521484,-1.332131745,-0.133249627,-0.022230165
-0.155639648,-0.996826172,-0.026611328,-0.86555594,-0.336294037,-0.059801375
-0.130493164,-0.981811523,-0.040771484,-0.655317042,-0.446343042,-0.069660487
-0.095458984,-0.987060547,-0.017578125,-0.246163902,-0.364805523,-0.134011176
-0.065429688,-0.997314453,-0.030151367,-0.023268037,-0.161627881,-0.158925418
-0.081420898,-1.017578125,-0.057006836,0.483676834,0.23580091,-0.196763091
-0.1171875,-1.038452148,0.022338867,0.742145441,0.308411936,-0.220078558
-0.130615234,-1.034790039,0.032348633,1.268675303,0.316139348,-0.29335574
-0.115112305,-1.033691406,0.012329102,1.556721246,0.286428781,-0.335057118
-0.071289063,-1.053222656,0.029052734,2.142405779,0.261248077,-0.443773811
-0.035400391,-1.034423828,0.07800293,2.69984529,0.495468598,-0.483609952
-0.00793457,-1.032836914,0.108520508,2.977632427,0.684124035,-0.467888665
-0.038330078,-1.014648438,0.194580078,3.425022933,0.965108721,-0.369164316
-0.041992188,-1.020629883,0.197875977,3.595558921,1.016003055,-0.308943795
-0.010498047,-1.05847168,0.169189453,3.834442535,0.88876722,-0.217014239
0.067993164,-1.106079102,0.310180664,4.001514511,0.821751906,-0.227006582
0.108154297,-0.974609375,0.486816406,4.340055093,0.955249609,-0.163188818
0.106567383,-0.916381836,0.490600586,4.361905017,1.148834602,-0.063265388
0.025024414,-0.870849609,0.494018555,4.361905017,1.630465537,0.167757584
0.00378418,-0.835693359,0.399047852,4.361905017,1.838705966,0.267547783
-0.151367188,-0.827148438,0.542114258,4.361905017,1.768892796,0.383325731
-0.200927734,-0.795654297,0.661987305,4.361905017,1.303116378,0.401178717
-0.133544922,-0.731079102,0.805786133,4.361905017,0.472419593,0.377996481
-0.037719727,-0.569946289,0.739990234,4.361905017,1.013471661,0.44661057
-0.145141602,-0.44519043,0.610229492,4.361905017,1.379990804,0.525350233
-0.217163086,-0.429931641,0.676635742,4.361905017,1.397710559,0.694420678
-0.257446289,-0.282470703,0.938842773,4.361905017,0.904222044,0.767564629
-0.219482422,-0.240844727,1.004760742,4.361905017,0.023297081,0.835112868
-0.199951172,-0.026855469,0.956176758,4.361905017,-0.012408891,0.845638136
-0.207397461,0.014282227,0.947021484,4.361905017,0.265511477,0.842440586
-0.196533203,-0.050048828,0.967895508,4.361905017,0.361970895,0.814728488
-0.168579102,0.037109375,1.020263672,4.361905017,0.027160787,0.79993982
-0.165893555,0.29296875,0.966674805,4.361905017,-0.257954068,0.799007202
-0.133666992,0.381958008,0.955200195,4.361905017,-0.469658509,0.796875502
-0.130004883,0.438964844,0.798583984,4.361905017,-0.409038295,0.803537064
-0.135253906,0.419189453,0.873413086,4.361905017,-0.117395109,0.789014859
-0.143554688,0.448242188,0.974609375,4.361905017,-0.088084236,0.790880096
-0.183349609,0.646850586,0.920166016,4.361905017,-0.328566625,0.782086834
-0.15246582,0.732177734,0.926269531,4.361905017,-0.402243501,0.802737676
-0.067871094,0.812011719,0.731201172,4.361905017,-0.322437988,0.889471214
-0.09362793,0.836669922,0.667236328,4.346316962,-0.318574282,0.925976574
-0.105957031,0.837036133,0.726928711,4.162990774,-0.566650852,0.923978105
-0.056640625,0.924682617,0.79675293,4.101171479,-0.645523747,0.905858657
-0.030761719,0.919555664,0.730712891,3.882139319,-0.414367544,0.862558503
-0.024047852,0.910400391,0.629150391,3.721462443,-0.209724359,0.825919912
-0.079956055,0.923461914,0.51574707,3.397976991,-0.006147023,0.749978105
-0.120483398,1.000732422,0.413574219,3.09714085,-0.159096487,0.663244568
-0.09387207,1.068359375,0.396484375,2.992554326,-0.279137835,0.627805058
-0.066040039,1.057495117,0.404174805,2.774055091,-0.325502307,0.573713174
-0.020751953,1.002929688,0.315063477,2.629765657,-0.267147023,0.533210877
-0.009521484,0.984863281,0.254150391,2.306679899,-0.192537529,0.41650031
0.008056641,1.012329102,0.193603516,2.154396591,-0.219983164,0.342690203
0.04675293,1.072631836,0.180297852,1.90192339,-0.228243501,0.184944414
0.045166016,1.071411133,0.193847656,1.728189852,0.032889731,0.059840279
-0.01574707,1.083007813,0.090698242,1.599621705,0.136676867,0.01267642
-0.028808594,1.075683594,0.032104492,1.269607922,0.106566607,-0.020231697
-0.029296875,1.045532227,-0.017089844,1.100004553,0.006776407,-0.012237822
-0.037353516,1.004882813,-0.084472656,0.805829974,-0.220516089,0.005615164
-0.001220703,1.026733398,-0.008178711,0.688453251,-0.30112099,0.004549314
0.01159668,1.050415039,0.011962891,0.451967798,-0.279271066,-0.014902447
0.028686523,1.088623047,0.001098633,0.334058151,-0.181612567,-0.038617608
0.079101563,1.155273438,0.018676758,0.08158495,0.027027556,-0.088312861
0.081665039,1.159301758,0.044189453,-0.084421176,0.114693712,-0.111495097
0.028442383,1.149291992,0.026611328,-0.517156246,0.192234294,-0.168384836
0.003173828,1.128417969,0.000610352,-0.755373704,0.177312395,-0.218346552
-0.024169922,1.090454102,-0.028564453,-1.258321637,0.198496163,-0.314539507
-0.04675293,1.090576172,-0.018676758,-1.542503873,0.242995397,-0.365966766
-0.106079102,1.100585938,0.082763672,-2.201865283,0.346516071,-0.464024959
-0.103393555,1.124511719,0.086425781,-2.522552879,0.425522197,-0.509856506
-0.094482422,1.151000977,0.082397461,-3.107171563,0.617375183,-0.604983612
-0.134887695,1.138183594,0.051269531,-3.381094994,0.577405811,-0.66600352
-0.089233398,1.08996582,0.118896484,-3.825954106,0.286562013,-0.744077027
-0.058105469,1.05871582,0.179199219,-4.03792501,0.16065849,-0.745276108
-0.037719727,0.996459961,0.354003906,-4.369404337,0.131347617,-0.757133689
-0.031005859,0.95690918,0.445800781,-4.369404337,0.258849915,-0.777917762
-0.035888672,0.928710938,0.544799805,-4.369404337,0.731287894,-0.873977487
-0.069824219,0.968139648,0.534790039,-4.369404337,0.833476255,-0.936196476
-0.095581055,0.864868164,0.647583008,-4.369404337,0.423923422,-0.984159723
-0.063598633,0.735473633,0.777832031,-4.369404337,0.134145473,-0.942325113
-0.092529297,0.611938477,0.7890625,-4.369404337,-0.112598784,-0.816421591
-0.113647461,0.412841797,0.810302734,-4.369404337,-0.022401234,-0.801899385
-0.09375,0.381103516,0.886230469,-4.369404337,0.310543636,-0.842801376
-0.037841797,0.375244141,1.022583008,-4.369404337,0.46242725,-0.826280703
-0.086547852,0.297729492,1.041625977,-4.369404337,0.322267985,-0.75406937
-0.12890625,0.250976563,0.997802734,-4.369404337,0.185839195,-0.705173505
-0.14855957,0.046264648,1.017089844,-4.369404337,-0.030928034,-0.657210258
-0.1484375,-0.064453125,1.009399414,-4.369404337,-0.037722827,-0.66174012
-0.153442383,-0.128295898,0.995727539,-4.369404337,0.061667678,-0.659741652
-0.163818359,-0.118896484,0.988525391,-4.369404337,0.084050527,-0.624435373
-0.193115234,-0.15612793,0.977172852,-4.369404337,-0.079024512,-0.523312861
-0.16784668,-0.252197266,1.006347656,-4.369404337,-0.232107207,-0.47375084
-0.18371582,-0.526123047,0.988769531,-4.369404337,-0.49230782,-0.393545633
-0.189331055,-0.623168945,0.848144531,-4.369404337,-0.553460959,-0.381288359
-0.174926758,-0.642089844,0.782348633,-4.369404337,-0.50523125,-0.357173504
-0.157592773,-0.673583984,0.688476563,-4.369404337,-0.45047321,-0.317870288
-0.142700195,-0.680786133,0.717041016,-4.369404337,-0.5041654,-0.189435372
-0.093505859,-0.793701172,0.774780273,-4.369404337,-0.587701388,-0.129214852
-0.12902832,-0.822387695,0.761108398,-4.24736452,-0.78768148,-0.06992695
-0.153564453,-0.859130859,0.599731445,-4.139580447,-0.893333854,-0.076988205
-0.128295898,-0.881713867,0.487915039,-3.932805561,-1.016173058,-0.031423121
-0.106933594,-0.89465332,0.42578125,-3.757073555,-1.02709802,0.111001075
-0.118164063,-0.9375,0.478271484,-3.634234351,-1.044817775,0.202664169
-0.138916016,-0.964233398,0.446411133,-3.524185346,-1.105704452,0.185344107
-0.129882813,-1.005859375,0.432006836,-3.220817811,-1.268513028,0.058374735
-0.119262695,-0.973754883,0.382202148,-3.055877536,-1.278905065,0.032794337
-0.047119141,-0.906738281,0.136474609,-2.75570755,-1.104372139,0.125123587
-0.053344727,-0.935058594,0.162841797,-2.640196065,-0.980733548,0.179481933
-0.100341797,-0.988769531,0.276123047,-2.365073553,-0.864555906,0.173486527
-0.100341797,-1.008789063,0.218139648,-1.969909693,-0.84563707,0.106337982
-0.117797852,-0.990356445,0.185180664,-1.765799433,-0.803802461,0.089417614
-0.097167969,-1.012695313,0.069702148,-1.571281821,-0.747712108,0.089284383
-0.104858398,-1.051391602,0.069091797,-1.192105711,-0.60288975,0.061705516
-0.07824707,-1.107177734,0.173828125,-1.000252724,-0.532143961,0.006814245
-0.080200195,-1.080078125,0.165283203,-0.570049048,-0.327900469,-0.108830472
-0.065795898,-1.034545898,0.071044922,-0.350617195,-0.191338447,-0.141205663
-0.079467773,-1.033569336,0.069946289,0.061067339,0.019566606,-0.181974423
-0.115356445,-1.054321289,0.062744141,0.248923388,0.045147005,-0.203024959
-0.124389648,-1.061767578,0.089355469,0.650349116,0.062467066,-0.300150533
-0.121704102,-1.033691406,0.119506836,1.176479285,0.177445627,-0.434447624
-0.116821289,-1.010498047,0.123901367,1.474917264,0.243128628,-0.480945327
-0.115112305,-1.021728516,0.194091797,2.089379746,0.346649302,-0.58326692
-0.114135742,-1.018310547,0.238769531,2.372229669,0.424456347,-0.62736646
-0.098144531,-1.05871582,0.275756836,2.928470099,0.764595704,-0.701709493
-0.063720703,-1.052612305,0.337036133,3.192001493,0.947255735,-0.721960641
-0.068603516,-1.043457031,0.392089844,3.724127068,1.132447159,-0.725424653
0.029541016,-0.979492188,0.445556641,4.305414971,1.005078093,-0.648017303
0.043334961,-0.945800781,0.448486328,4.361905017,0.989356807,-0.601786062
0.070922852,-0.888549805,0.434082031,4.361905017,1.242362933,-0.538634454
0.06237793,-0.857421875,0.427612305,4.361905017,1.485376716,-0.520648237
-0.010620117,-0.861083984,0.509399414,4.361905017,1.921575797,-0.521447624
-0.078491211,-0.803222656,0.701171875,4.361905017,1.91757886,-0.504527256
-0.018920898,-0.810058594,0.771850586,4.361905017,1.66737059,-0.356107654
0.191772461,-0.712280273,0.836669922,4.361905017,1.678695246,-0.199028022
0.123168945,-0.648925781,0.812133789,4.361905017,1.839238891,0.13511593
-0.224609375,-0.466308594,0.889770508,4.361905017,1.643655429,0.242367078
-0.286499023,-0.380493164,0.73059082,4.361905017,1.414231233,0.245964322
-0.207275391,-0.311767578,0.79284668,4.361905017,0.971104127,0.360010264
-0.03918457,-0.214233398,1.218017578,4.361905017,0.822684525,0.437550846
-0.086303711,-0.158447266,1.271850586,4.361905017,0.830944862,0.565985762
-0.237670898,-0.067016602,0.974487305,4.361905017,0.794839196,0.580641198
-0.216186523,-0.025146484,0.776367188,4.361905017,0.512122503,0.640462025
-0.124389648,0.158691406,0.851806641,4.361905017,0.306280236,0.690024047
-0.092529297,0.194458008,1.114990234,4.361905017,-0.064235844,0.793544721
-0.096313477,0.236694336,1.244262695,4.361905017,-0.140177651,0.810731551
-0.157714844,0.298583984,1.056884766,4.361905017,-0.026531403,0.71933492
-0.182617188,0.400390625,0.920288086,4.361905017,0.090578858,0.65924763
-0.141113281,0.58215332,0.751708984,4.361905017,0.266843789,0.70214809
-0.127807617,0.581298828,0.799194336,4.361905017,0.20355895,0.780221597
-0.204223633,0.679443359,0.967651367,4.361905017,-0.492041357,0.865756053
-0.172485352,0.728271484,1.061767578,4.342586487,-0.813261879,0.844705517
-0.127197266,0.726196289,0.849609375,4.080653868,-0.655649321,0.785151153
-0.107055664,0.841064453,0.505004883,3.909718186,-0.15723125,0.777956666
-0.106079102,0.879760742,0.525024414,3.824450192,-0.180280254,0.793811183
-0.186279297,0.948974609,0.697143555,3.739448661,-0.385856059,0.790347171
-0.154418945,0.911010742,0.782226563,3.529209763,-0.620875967,0.699217002
-0.060913086,0.899780273,0.577636719,3.219047435,-0.257820836,0.587702454
-0.009887695,0.942749023,0.332519531,3.102869793,-0.166157743,0.570382393
-0.026123047,0.972412109,0.288452148,2.911949425,-0.45900001,0.57544518
-0.081542969,1.03918457,0.33972168,2.791641615,-0.681895875,0.573047018
-0.050170898,1.016113281,0.369140625,2.612578827,-0.751709045,0.548665701
0.044311523,0.982055664,0.297119141,2.527710527,-0.46766004,0.495906129
0.021484375,1.009399414,0.192504883,2.36796627,-0.443012261,0.418898472
-0.032226563,1.052734375,0.240722656,2.210486943,-0.493506901,0.371601382
-0.040039063,1.076049805,0.216674805,1.807329209,-0.302453302,0.274342576
-0.017089844,1.059448242,0.227905273,1.653180664,-0.091015323,0.220117461
0.02722168,1.024047852,0.184692383,1.49277025,0.169318521,0.122059268
0.024414063,1.06237793,0.093017578,1.403372088,0.189036745,0.06743446
-0.010009766,1.083984375,0.035400391,1.151431812,0.05860336,-0.031423121
0.002441406,1.0703125,-0.011108398,1.02126489,-0.014540591,-0.062066306
-0.005004883,1.053710938,-0.037841797,0.775852944,-0.063303225,-0.075522662
0.021728516,1.044921875,0.006347656,0.655944828,-0.067300162,-0.081118374
0.034179688,1.086181641,-0.005859375,0.3479142,0.015303207,-0.114159721
0.008422852,1.146606445,-0.01159668,-0.114797899,0.10043797,-0.171848849
-0.002807617,1.081542969,-0.00793457,-0.591898972,0.104967832,-0.246191881
-0.009399414,1.053710938,-0.021972656,-0.830249661,0.153597235,-0.28802649
-0.046264648,1.071777344,-0.043945313,-1.329600351,0.315606423,-0.337988206
-0.072509766,1.09387207,-0.020141602,-1.631902036,0.336923422,-0.352510411
-0.095703125,1.143554688,0.001098633,-2.301122557,0.26591117,-0.376358803
-0.094238281,1.144287109,0.013916016,-2.667774932,0.218880542,-0.404070901
-0.059204102,1.084838867,0.116455078,-3.368171564,0.217281768,-0.525044867
-0.054321289,0.977172852,0.193969727,-3.670340017,0.309344555,-0.589528788
-0.105224609,1.004150391,0.160522461,-4.257623326,0.622970895,-0.66600352
-0.161254883,1.03125,0.251464844,-4.369404337,0.591794785,-0.672931545
-0.10949707,1.009643555,0.33203125,-4.369404337,0.418594172,-0.672665082
0.030883789,0.933105469,0.390869141,-4.369404337,0.144937204,-0.687187287
0.027099609,0.88269043,0.453979492,-4.369404337,0.147601829,-0.675729401
-0.041503906,0.765991211,0.559692383,-4.369404337,0.474950987,-0.646818221
-0.071533203,0.728637695,0.634521484,-4.369404337,0.651882074,-0.656810564
-0.019042969,0.661376953,0.875244141,-4.369404337,0.5526248,-0.681991269
0.034301758,0.647949219,0.99609375,-4.369404337,0.361038276,-0.662006583
-0.016723633,0.458496094,1.056152344,-4.369404337,0.081918827,-0.600320518
-0.037353516,0.347045898,0.943237305,-4.369404337,0.063266453,-0.535303673
-0.086181641,0.206176758,0.87121582,-4.369404337,0.193699838,-0.395277639
-0.119506836,0.190917969,1.034545898,-4.369404337,0.234068904,-0.339054056
-0.134399414,0.16027832,1.100708008,-4.369404337,0.193433375,-0.349046399
-0.169189453,-0.046508789,0.981689453,-4.369404337,0.158393559,-0.407268451
-0.150878906,-0.157836914,0.883666992,-4.369404337,0.124552824,-0.424455281
-0.148071289,-0.241821289,0.896484375,-4.369404337,-0.18840736,-0.400340426
-0.163085938,-0.280761719,1.052978516,-4.369404337,-0.654849934,-0.398741651
-0.109375,-0.434692383,0.893676758,-4.369404337,-0.786482399,-0.332392494
-0.156982422,-0.615966797,0.832397461,-4.369404337,-0.558390515,-0.277767685
-0.124023438,-0.637817383,0.855712891,-4.369404337,-0.421162337,-0.270306735
-0.080444336,-0.641845703,0.813110352,-4.369404337,-0.413301694,-0.273770748
-0.103515625,-0.651367188,0.784179688,-4.369404337,-0.782352231,-0.27936646
-0.155151367,-0.717285156,0.668334961,-4.369404337,-1.001517622,-0.253386368
-0.112915039,-0.787841797,0.609619141,-4.369404337,-1.074661573,-0.131479783
0.005981445,-0.868652344,0.616210938,-4.369404337,-0.738385921,-0.01516891
-0.029052734,-0.876098633,0.599609375,-4.359811687,-0.609951005,-0.019432309
-0.021362305,-0.909912109,0.528808594,-4.114266511,-0.622607973,-0.046744714
-0.055541992,-0.949462891,0.290283203,-4.051647828,-0.712139367,-0.029024959
-0.039672852,-0.974975586,0.285888672,-3.942264979,-0.867753456,0.049315011
-0.03137207,-0.983276367,0.302734375,-3.813297138,-0.878678418,0.069299697
-0.029785156,-0.986938477,0.264648438,-3.453306326,-0.751442583,0.032527874
-0.03515625,-1.024291992,0.201293945,-3.255857628,-0.682029107,0.000285914
-0.057250977,-1.074829102,0.152099609,-2.93610265,-0.657248096,-0.043014239
-0.048950195,-1.026367188,0.100830078,-2.822989327,-0.664975508,-0.034753902
-0.017089844,-1.025146484,0.059204102,-2.489111838,-0.62873661,0.01920475
-0.001831055,-1.059448242,0.040771484,-2.283402802,-0.556392047,0.034126649
-0.040283203,-1.075805664,0.033935547,-1.816560535,-0.354546717,-0.02276309
-0.041625977,-1.04296875,-0.009155273,-1.589001576,-0.267679948,-0.062066306
-0.060791016,-1.064331055,-0.064208984,-1.162928069,-0.124189902,-0.107498159
-0.061035156,-1.076416016,-0.120483398,-0.95575349,-0.059705982,-0.122686521
-0.076416016,-1.090454102,-0.04309082,-0.479318573,0.017434907,-0.164121437
-0.08605957,-1.084838867,-0.026977539,-0.221116429,0.035287893,-0.170250074
-0.093994141,-1.086425781,-0.070800781,0.32752982,0.14133996,-0.161323581
-0.098388672,-1.096557617,-0.072753906,0.62503518,0.229272579,-0.167452218
-0.079467773,-1.130981445,-0.014892578,1.230038244,0.373428782,-0.225008114
-0.056640625,-1.1640625,0.020385742,1.571243451,0.41619601,-0.270040273
-0.029785156,-1.151489258,0.03125,2.234735029,0.518784065,-0.302415464
-0.032104492,-1.133911133,0.010620117,2.534905014,0.595658491,-0.28909234
-0.044677734,-1.088012695,0.050048828,3.089013744,0.773255735,-0.229537976
-0.059692383,-1.096069336,0.069458008,3.658976991,0.988690651,-0.201825878
0.030151367,-1.206054688,0.16418457,3.966474695,1.091145475,-0.223142876
0.07421875,-1.170654297,0.308349609,4.244927987,1.19693108,-0.2407294
0.069702148,-1.089233398,0.281860352,4.361905017,1.363070437,-0.181308267
0.046142578,-0.993530273,0.247436523,4.361905017,1.605950988,0.013875501
0.047119141,-0.997680664,0.307250977,4.361905017,1.749041341,0.132051611
0.08190918,-0.961303711,0.446655273,4.361905017,1.71027105,0.308849467
0.090454102,-0.879760742,0.473144531,4.361905017,1.570111785,0.368936757
-0.082641602,-0.713134766,0.460571289,4.361905017,1.377592642,0.394117461
-0.203491211,-0.608032227,0.443359375,4.361905017,1.366800912,0.377197094
-0.182495117,-0.640869141,0.458740234,4.361905017,1.433549763,0.368004138
-0.112548828,-0.559570313,0.766967773,4.361905017,1.367067374,0.376530938
-0.041381836,-0.478149414,0.97253418,4.361905017,1.017735061,0.388388518
-0.088256836,-0.282714844,0.882568359,4.361905017,1.062500758,0.440215471
-0.169799805,-0.221923828,0.840209961,4.361905017,1.354943331,0.579975042
-0.257568359,-0.105712891,0.744995117,4.361905017,1.185606424,0.764100617
-0.229370117,-0.061889648,0.787963867,4.361905017,0.839604892,0.867754522
-0.165649414,0.080322266,1.033813477,4.361905017,-0.023333853,0.995256819
-0.193481445,0.198974609,1.096557617,4.361905017,-0.242898938,1.006448243
-0.196044922,0.259277344,0.922851563,4.361905017,0.024362931,0.958484997
-0.162719727,0.260864258,0.818725586,4.361905017,0.328929547,0.942497248
-0.091674805,0.373657227,0.801391602,4.361905017,0.310410405,1.046017922
-0.092895508,0.512573242,0.840087891,4.361905017,-0.135514558,1.116630479
-0.170288086,0.743530273,0.962402344,4.361905017,-0.934102614,1.112500311
-0.156738281,0.739624023,0.858398438,4.361905017,-0.982199092,1.052146559
-0.087646484,0.736816406,0.562744141,4.361905017,-0.691088831,0.96954319
-0.056762695,0.779541016,0.531005859,4.361905017,-0.637663103,0.979535533
-0.11315918,0.91796875,0.679321289,4.361905017,-0.817924972,0.907457432
-0.143676758,1.002685547,0.795166016,4.361905017,-0.73718684,0.824321137
-0.007324219,0.948242188,0.633300781,4.287561984,-0.073162337,0.642593725
0.044433594,0.969360352,0.477294922,4.089846823,0.238199072,0.592365548
-0.040771484,1.03125,0.298339844,3.669102565,0.176912702,0.571448243
-0.094116211,1.048461914,0.28503418,3.475517573,-0.081422674,0.567318074
-0.055297852,1.073486328,0.236450195,3.24755892,-0.34522053,0.598227722
0.061035156,1.027709961,0.163330078,3.190003024,-0.277805523,0.623541658
0.012939453,1.036621094,0.104125977,2.869315428,-0.164692199,0.641261413
-0.065063477,1.100463867,0.092895508,2.621638552,-0.268079642,0.613682546
-0.058349609,1.098144531,0.070556641,2.108964738,-0.678698326,0.569316543
-0.004638672,1.104492188,0.011474609,1.937895825,-0.812862185,0.541870907
0.038330078,1.091796875,0.035522461,1.739914201,-0.609951005,0.493641198
0.042114258,1.114379883,-0.015869141,1.60441803,-0.38492344,0.455270601
0.039672852,1.112670898,-0.029541016,1.207522164,-0.131784083,0.345221596
-0.013549805,1.077514648,-0.052124023,0.983160755,-0.171486993,0.27261057
0.007202148,1.055297852,-0.063354492,0.592926451,-0.318707513,0.112999544
0.031738281,1.046264648,-0.045410156,0.321800876,-0.190272598,-0.00877381
0.021606445,1.060546875,-0.037353516,0.189102561,-0.045983164,-0.038217914
0.009887695,1.11315918,-0.078125,-0.172487026,0.106833069,-0.07538943
0.011474609,1.095703125,-0.072509766,-0.674502341,0.058736591,-0.131613014
0.010009766,1.072753906,-0.098510742,-0.907790243,0.037286361,-0.162922356
-0.020507813,1.043823242,-0.086425781,-1.359177686,0.097506882,-0.22141087
-0.044311523,1.059936523,-0.038574219,-1.636165436,0.151199072,-0.252187287
-0.071166992,1.09387207,0.047363281,-2.279272634,0.217015305,-0.323332769
-0.074829102,1.112915039,0.07409668,-2.631669265,0.220479317,-0.362502754
-0.081176758,1.095947266,0.059936523,-2.955954105,0.213817755,-0.419925419
-0.039794922,1.06652832,0.034301758,-3.414802498,0.272572732,-0.543031085
-0.007324219,1.04284668,0.118774414,-3.579742774,0.339588046,-0.568078558
-0.024780273,1.037475586,0.165649414,-3.90362792,0.422058184,-0.579802907
-0.064331055,1.002929688,0.260498047,-4.129055179,0.453101063,-0.574873351
-0.104492188,0.962158203,0.256347656,-4.369404337,0.383554356,-0.592326644
-0.079711914,0.907714844,0.340820313,-4.369404337,0.128283299,-0.593792188
-0.053588867,0.902099609,0.462524414,-4.369404337,0.054073498,-0.563415465
-0.000976563,0.89440918,0.643188477,-4.369404337,0.078854509,-0.517317456
-0.027587891,0.907592773,0.654541016,-4.369404337,0.239264922,-0.375292953
-0.096801758,0.728515625,0.573852539,-4.369404337,0.181442564,-0.301882539
-0.060058594,0.596435547,0.571289063,-4.369404337,-0.18734151,-0.199161253
0.047241211,0.391723633,0.887451172,-4.369404337,-0.315243501,-0.172515005
0.079589844,0.352172852,1.092163086,-4.369404337,-0.251292506,-0.159325112
0.076904297,0.317260742,1.127319336,-4.369404337,-0.138845339,-0.143470594
0.030517578,0.283081055,1.004272461,-4.369404337,0.094575795,-0.088046398
0.041381836,0.098266602,0.766113281,-4.369404337,0.119756499,-0.090977486
0.113647461,-0.022949219,0.856811523,-4.369404337,0.002113314,-0.119888665
0.084472656,-0.104614258,1.234863281,-4.369404337,0.004378245,-0.137075495
-0.004272461,-0.08984375,1.230712891,-4.369404337,0.014237357,-0.153995862
-0.124389648,-0.203491211,0.95690918,-4.369404337,-0.039454833,-0.139873351
-0.127685547,-0.331542969,0.939697266,-4.369404337,-0.162027574,-0.180775342
-0.052124023,-0.477050781,1.113769531,-4.369404337,-0.1582971,-0.236066307
-0.020996094,-0.513305664,1.082641602,-4.369404337,-0.247029106,-0.318536445
-0.047729492,-0.560180664,0.817871094,-4.369404337,-0.472456365,-0.27830061
-0.090454102,-0.655395508,0.705932617,-4.369404337,-0.926908127,-0.139873351
-0.064575195,-0.735473633,0.667236328,-4.369404337,-0.989127116,-0.110562478
0.03894043,-0.790161133,0.737792969,-4.369404337,-0.838842277,-0.116691115
0.051513672,-0.80078125,0.769897461,-4.369404337,-0.709474742,-0.140273045
0.040161133,-0.798339844,0.66394043,-4.369404337,-0.646456365,-0.09470796
-0.027709961,-0.928466797,0.432617188,-4.369404337,-0.935035233,0.033593724
-0.062866211,-0.96081543,0.511352539,-4.224448747,-1.17645024,0.051313479
-0.018798828,-0.965698242,0.525878906,-4.055644765,-1.208558969,0.04491838
0.075561523,-1.004882813,0.484375,-3.660347674,-0.922378265,0.015074582
0.083129883,-1.010131836,0.410644531,-3.455704489,-0.737719765,0.0266657
0.079589844,-1.049682617,0.23059082,-3.150471716,-0.560788678,0.109535532
0.019165039,-1.071899414,0.202392578,-3.044686111,-0.585303226,0.123524812
-0.029663086,-0.99597168,0.207397461,-2.782886724,-0.731058203,0.06103936
-0.008911133,-0.959716797,0.094482422,-2.604490092,-0.799938755,0.032794337
0.039550781,-1.000488281,0.053588867,-2.162695299,-0.762500776,0.011344107
0.05847168,-1.00769043,0.066040039,-1.784585038,-0.433019918,-0.004776873
0.072387695,-1.008056641,0.067871094,-1.644292541,-0.287531403,-0.008907041
0.044677734,-1.03137207,0.098999023,-1.382892847,-0.304185308,-0.017567072
0.029785156,-1.04699707,0.049438477,-1.209958697,-0.389852996,-0.017433841
0.020629883,-1.051025391,-0.052490234,-0.806934194,-0.326701388,-0.030756965
0.022216797,-1.043579102,-0.020385742,-0.602024546,-0.157897406,-0.059534913
-0.003173828,-1.01574707,-0.015014648,-0.209791774,0.102569669,-0.092975954
0.002807617,-1.035644531,-0.021606445,-0.004615663,0.134944861,-0.097239354
0.024047852,-1.082519531,-0.017700195,0.443973924,0.197830006,-0.078720211
0.031738281,-1.088500977,-0.015136719,0.682457845,0.25085604,-0.062066306
0.005737305,-1.070678711,0.017333984,1.196863665,0.401807036,-0.059001988
-0.00390625,-1.088989258,0.025512695,1.47238587,0.530641645,-0.092176567
0.001098633,-1.129272461,0.102905273,2.088846821,0.772856041,-0.201159722
0.006835938,-1.135864258,0.149658203,2.420326147,0.834941799,-0.26111378
0.029907227,-1.12902832,0.155883789,3.072892764,0.980963239,-0.347714086
0.047607422,-1.119262695,0.157470703,3.361205168,1.121921891,-0.35997136
0.061279297,-1.073730469,0.186401367,3.772490008,1.545330774,-0.274703366
0.075439453,-1.037231445,0.194824219,3.940894296,1.754637053,-0.195830472
0.096191406,-1.044067383,0.313476563,4.361905017,1.846300146,-0.116024959
0.108642578,-1.018554688,0.428588867,4.361905017,1.735451754,-0.134677332
0.130004883,-0.994750977,0.388305664,4.361905017,1.720529855,-0.136409339
0.104858398,-0.970825195,0.422973633,4.361905017,1.865885139,-0.099371054
0.060424805,-0.955322266,0.448730469,4.361905017,2.274638585,0.027198625
0.002807617,-0.870605469,0.60546875,4.361905017,2.311543639,0.11473155
-0.063964844,-0.822265625,0.706542969,4.361905017,1.54386523,0.253558503
-0.030273438,-0.75378418,0.735229492,4.361905017,0.9940199,0.280604444
0.012939453,-0.639282227,0.72265625,4.361905017,0.789643177,0.325636604
-0.02734375,-0.534179688,0.73046875,4.361905017,1.103669211,0.361475808
-0.052734375,-0.535766602,0.762207031,4.361905017,1.7092052,0.4637974
-0.154052734,-0.485717773,0.866333008,4.361905017,1.610480851,0.513359422
-0.107788086,-0.453125,0.925292969,4.361905017,0.778718215,0.604223128
0.02746582,-0.293823242,1.0703125,4.361905017,0.51398774,0.646857125
-0.047363281,-0.206665039,1.000732422,4.361905017,0.525445627,0.737854062
-0.216186523,-0.10168457,0.987426758,4.361905017,0.541166913,0.745581474
-0.205322266,-0.04296875,0.938232422,4.361905017,0.263912702,0.761702454
-0.093139648,0.072265625,0.959838867,4.361905017,0.03821898,0.818325732
-0.032714844,0.057250977,1.014404297,4.361905017,0.084716683,0.840575349
-0.061523438,0.1640625,1.002441406,4.361905017,0.193166913,0.885873971
-0.132324219,0.19543457,0.939697266,4.361905017,0.060468597,0.882676421
-0.122314453,0.395996094,0.872924805,4.361905017,-0.225045951,0.842707049
0.000732422,0.449462891,0.882324219,4.361905017,0.019833069,0.812197095
-0.072265625,0.580932617,0.884033203,4.361905017,0.080586515,0.799806589
-0.108520508,0.612792969,0.844970703,4.361905017,-0.236903532,0.722932163
-0.115966797,0.739624023,0.6171875,4.361905017,-0.454203685,0.656183312
-0.050537109,0.874389648,0.500976563,4.361905017,-0.436084236,0.549731551
0.037353516,0.994018555,0.556640625,4.361905017,-0.174951005,0.5507974
-0.021240234,1.021484375,0.532104492,4.361905017,0.310410405,0.550930632
-0.14831543,1.030517578,0.355834961,4.361905017,0.347581921,0.523751459
-0.148193359,1.010131836,0.269287109,4.289160759,0.114693712,0.451007201
-0.136962891,1.024047852,0.187011719,4.117025996,-0.069964787,0.416100616
-0.135742188,1.083251953,0.228149414,3.812326149,-0.287931097,0.349085302
-0.135498047,1.090698242,0.194702148,3.271673775,-0.177349167,0.245831091
-0.130126953,1.096191406,0.04699707,2.95005356,-0.099142429,0.170022515
-0.122680664,1.089355469,-0.097412109,2.402206699,-0.178148555,0.075961259
-0.088012695,1.066650391,-0.033447266,1.98785754,-0.271676886,0.059174123
-0.098999023,1.058837891,-0.01953125,1.780949424,-0.204661571,0.074895409
-0.089477539,1.015136719,-0.07043457,1.335024461,-0.092614098,0.098877032
-0.100097656,1.031616211,-0.201660156,0.853127064,-0.205727421,0.107537063
-0.123291016,1.036865234,-0.205932617,0.630764123,-0.31724197,0.120460493
-0.09387207,1.03112793,-0.114746094,0.270373618,-0.370001541,0.146307354
-0.048217773,1.015380859,-0.077270508,0.096373617,-0.239035232,0.154834153
-0.042602539,1.032592773,-0.121704102,-0.256822402,0.088313927,0.156166466
-0.053466797,1.003295898,-0.155151367,-0.428157777,0.134411936,0.146840279
-0.075683594,0.990600586,-0.158691406,-0.773093459,-0.01120981,0.124590662
-0.076293945,0.998413086,-0.041381836,-1.138280289,-0.027996946,0.103673357
-0.086181641,1.013061523,-0.000244141,-1.36490663,0.072326178,0.077560034
-0.108154297,1.062011719,0.009399414,-1.797375237,0.212885137,-0.007441498
-0.117553711,1.0703125,-0.038818359,-2.041588101,0.205957112,-0.055005051
-0.138305664,1.072509766,0.007324219,-2.689624855,0.101903513,-0.129614545
-0.145996094,1.090942383,0.112060547,-3.034027612,0.060335366,-0.146668144
-0.140380859,1.112060547,0.119384766,-3.584805561,0.091378245,-0.175979017
-0.176269531,1.117919922,0.134277344,-3.847004642,0.144670741,-0.187703366
-0.169677734,1.068603516,0.207275391,-4.369404337,0.143604891,-0.21821332
-0.109130859,1.005493164,0.264526367,-4.369404337,0.10043797,-0.243394025
-0.039306641,0.986816406,0.34765625,-4.369404337,0.143338429,-0.232868757
0.044189453,0.996704102,0.516357422,-4.369404337,0.232203666,-0.217547164
0.021606445,1.008911133,0.541015625,-4.369404337,0.179577326,-0.226340426
0.027709961,0.81628418,0.729614258,-4.369404337,0.102969363,-0.295887134
0.062011719,0.701660156,0.763305664,-4.369404337,0.139208261,-0.334390962
0.099487305,0.580078125,0.940063477,-4.369404337,0.116425718,-0.349712555
0.053588867,0.573120117,1.079101563,-4.369404337,0.100038276,-0.338920824
0.063842773,0.615112305,1.001464844,-4.369404337,0.396078092,-0.336922356
0.061767578,0.565307617,0.984985352,-4.369404337,0.573408874,-0.328928481
-0.083984375,0.376464844,0.8984375,-4.369404337,0.605117909,-0.344516536
-0.134155273,0.193847656,0.913330078,-4.369404337,0.456698307,-0.339720212
-0.170532227,0.01965332,1.00390625,-4.369404337,-0.087817773,-0.340919293
-0.049194336,0.034790039,1.125610352,-4.369404337,-0.649920378,-0.31800352
-0.038085938,0.018554688,1.169677734,-4.369404337,-0.837376733,-0.276568604
-0.035644531,-0.184570313,1.040527344,-4.369404337,-0.873082706,-0.125750839
0.067260742,-0.464477539,0.930786133,-4.369404337,-0.714937223,-0.068994331
0.075439453,-0.544311523,0.956787109,-4.369404337,-0.410903532,0.00628132
-0.019165039,-0.588256836,0.955444336,-4.369404337,-0.494306289,0.030795868
-0.039428711,-0.601928711,0.936035156,-4.369404337,-0.916249628,0.077560034
-0.004272461,-0.649658203,0.770385742,-4.369404337,-0.963413487,0.210125118
-0.057006836,-0.642944336,0.663696289,-4.369404337,-0.855229719,0.259553908
-0.015625,-0.74987793,0.583618164,-4.369404337,-0.717335385,0.292728487
0.034057617,-0.788696289,0.538452148,-4.369404337,-0.718667698,0.300056206
0.027832031,-0.863891602,0.477783203,-4.369404337,-0.754107208,0.298990356
-0.007202148,-0.829956055,0.483398438,-4.369404337,-0.78115315,0.293394644
-0.044921875,-0.838378906,0.335571289,-4.257090401,-0.922511496,0.316843342
-0.060058594,-0.870849609,0.255859375,-4.147974015,-0.989793272,0.326835685
-0.032348633,-0.960083008,0.145751953,-3.795044458,-0.944627882,0.305385455
-0.036499023,-1.013671875,0.230712891,-3.347787184,-0.591032169,0.154567691
-0.02722168,-0.986083984,0.202636719,-3.136748899,-0.441013792,0.066235378
-0.039428711,-0.93762207,0.09387207,-2.765699894,-0.442346105,-0.029424652
-0.081420898,-0.923583984,0.028198242,-2.574779526,-0.575710577,-0.030890196
-0.068969727,-0.952514648,-0.017333984,-2.160163905,-0.776490056,-0.040083152
-0.05065918,-0.977783203,0.006469727,-1.918215972,-0.719866779,-0.062599231
-0.048461914,-0.99621582,0.045166016,-1.38529101,-0.295392046,-0.151464469
-0.039306641,-1.009155273,0.030517578,-1.114831591,-0.043851464,-0.182907042
-0.039916992,-1.035522461,-0.0078125,-0.648522249,0.230738123,-0.204357271
-0.109008789,-1.078125,-0.111206055,-0.252825464,0.222611017,-0.22993767
-0.133422852,-1.083496094,-0.100341797,-0.050846904,0.06286676,-0.253519599
-0.069824219,-1.099853516,-0.029418945,0.394944827,-0.213454833,-0.31374012
0.044921875,-1.112915039,-0.009521484,0.848197508,0.30028483,-0.333458343
0.052856445,-1.102661133,0.037963867,1.0545727,0.60418529,-0.302681927
0.009399414,-1.08605957,0.035400391,1.475450189,0.823617144,-0.223409339
-0.009155273,-1.103515625,-0.05065918,1.693150036,0.798836133,-0.203291421
0.007324219,-1.123046875,-0.013916016,2.150266423,0.716232764,-0.217946858
-0.001464844,-1.143310547,0.064697266,2.391281737,0.695848384,-0.253919293
-0.02331543,-1.16003418,0.127319336,2.874111753,0.788177634,-0.366233229
-0.039672852,-1.125488281,0.139282227,3.278068874,0.912082687,-0.454299079
0.023071289,-1.134643555,0.186035156,3.618208232,1.072493101,-0.480812096
0.073364258,-1.095214844,0.246826172,3.749441004,1.13897549,-0.455631391
0.137695313,-1.044189453,0.315063477,4.056272551,1.248624801,-0.364767685
0.15222168,-0.997070313,0.453857422,4.303016808,1.227707496,-0.334657425
0.14440918,-0.906982422,0.393920898,4.361905017,1.400641647,-0.242994331
0.144287109,-0.872802734,0.396362305,4.361905017,1.638459411,-0.189968297
0.143554688,-0.798461914,0.451660156,4.361905017,2.230006119,-0.030623734
0.100219727,-0.785644531,0.437133789,4.361905017,2.422658493,0.065036297
-0.160644531,-0.795288086,0.756958008,4.361905017,1.783415001,0.161628947
-0.120727539,-0.718261719,0.710083008,4.361905017,1.230638584,0.161362484
-0.053100586,-0.609008789,0.661010742,4.361905017,0.971503821,0.256622821
0.049682617,-0.509643555,0.807006836,4.361905017,1.534405812,0.452872439
-0.049804688,-0.473266602,0.962402344,4.361905017,1.694682995,0.56252175
-0.164550781,-0.453369141,1.011474609,4.361905017,1.067830008,0.671105211
-0.179199219,-0.381591797,0.947387695,4.361905017,0.563416531,0.647256819
-0.173095703,-0.262817383,0.929931641,4.361905017,0.455898919,0.605288978
-0.072631836,-0.036865234,0.884277344,4.361905017,0.708238889,0.669373205
-0.043457031,0.032714844,1.009521484,4.361905017,0.889566608,0.92664273
-0.101196289,0.009643555,1.240234375,4.361905017,0.494402748,1.03829051
-0.165039063,0.049804688,1.100463867,4.361905017,0.305347618,1.002851
-0.131469727,0.272338867,0.837768555,4.361905017,0.333859103,0.980468151
-0.118041992,0.361206055,0.756591797,4.361905017,0.428186821,1.025900004
-0.116333008,0.418579102,0.886108398,4.361905017,0.296154662,1.116497248
-0.120727539,0.485961914,1.098632813,4.361905017,0.073258796,1.126622822
-0.096069336,0.561523438,1.011962891,4.361905017,-0.174151617,1.07159832
-0.031616211,0.666992188,0.690795898,4.361905017,0.040883605,1.042820372
-0.132202148,0.74621582,0.611206055,4.361905017,0.109764156,1.03296126
-0.179077148,0.78112793,0.670288086,4.361905017,-0.156298631,0.954088366
-0.188598633,0.869628906,0.635375977,4.161258768,-0.558257284,0.799140433
-0.159179688,0.925537109,0.568237305,4.049477757,-0.513358356,0.731325731
-0.075561523,0.940185547,0.463500977,3.757834572,-0.199465553,0.636465088
-0.078613281,0.935791016,0.422119141,3.571976991,-0.161228187,0.599693266
-0.133300781,0.92980957,0.342407227,3.241696746,-0.463929566,0.514958197
-0.110473633,0.9375,0.306762695,3.146702871,-0.666174589,0.493241505
-0.03125,1.045410156,0.203491211,3.07995402,-0.785549781,0.504033235
0.021484375,1.051269531,0.205322266,3.057837634,-0.700947943,0.504033235
0.040893555,1.067626953,0.206298828,2.907819257,-0.532277192,0.474988825
0.025634766,1.047241211,0.170898438,2.792441002,-0.541070454,0.468993419
-0.014038086,0.991333008,0.050292969,2.523180665,-0.662044421,0.456069988
-0.032470703,1.020751953,0.030639648,2.378358306,-0.717468617,0.451140432
-0.028076172,1.065185547,0.05065918,2.119490006,-0.753707514,0.415034766
-0.012207031,1.108520508,0.009887695,1.981728903,-0.686026044,0.367204751
-0.017456055,1.111328125,-0.023681641,1.644120939,-0.403709045,0.270079176
-0.044433594,1.103515625,-0.108154297,1.445739622,-0.314843807,0.222648855
-0.064941406,1.116333008,-0.079833984,0.947454782,-0.38705514,0.133650386
0.007202148,1.18359375,-0.036621094,0.673931045,-0.415300163,0.080757584
0.043212891,1.213745117,-0.041259766,0.167252637,-0.177349167,-0.033954515
0.014404297,1.225830078,-0.093994141,-0.096411988,0.039418061,-0.089911636
-0.036132813,1.220458984,-0.082763672,-0.818791774,0.236733529,-0.18490551
-0.095458984,1.161865234,-0.085083008,-1.675202189,0.061667678,-0.259781467
-0.112304688,1.132568359,-0.101196289,-2.095946447,0.00384532,-0.274836598
-0.104003906,1.086669922,-0.058227539,-2.91891582,-0.009877498,-0.300283765
-0.128540039,1.075561523,0.005737305,-3.352983202,-0.010810116,-0.330793719
-0.18347168,1.098999023,0.166992188,-4.218986266,0.112562012,-0.388482846
-0.106201172,1.03527832,0.174316406,-4.369404337,0.417528322,-0.406202601
-0.033813477,0.997192383,0.124023438,-4.369404337,0.564482381,-0.396077027
0.07824707,0.888916016,0.050170898,-4.369404337,0.608182227,-0.404737057
0.056274414,0.943115234,0.390258789,-4.369404337,0.399542105,-0.383286827
0.079223633,0.878417969,0.544311523,-4.369404337,0.121888199,-0.30947672
0.034667969,0.768920898,0.697631836,-4.369404337,0.250989271,-0.280965235
-0.014770508,0.765991211,0.71862793,-4.369404337,0.483078093,-0.244726337
-0.015625,0.631713867,0.686645508,-4.369404337,0.369298613,-0.246591575
0.054199219,0.563720703,0.7734375,-4.369404337,0.007575795,-0.206888665
0.035400391,0.400024414,0.943481445,-4.369404337,-0.088883623,-0.183573198
-0.026611328,0.287719727,1.034057617,-4.369404337,-0.072895875,-0.167452218
-0.025756836,0.172363281,0.893188477,-4.369404337,-0.043851464,-0.163988205
0.037719727,0.137817383,0.877319336,-4.369404337,0.001180695,-0.143337363
0.065551758,0.133300781,0.996337891,-4.369404337,0.120555887,-0.155461406
-0.013916016,-0.031494141,1.142700195,-4.369404337,-0.131650852,-0.187303673
-0.07824707,-0.246337891,1.046386719,-4.369404337,-0.75117612,-0.130280702
-0.047485352,-0.298461914,0.984008789,-4.369404337,-0.911986228,-0.096173504
-0.001098633,-0.336914063,1.110961914,-4.369404337,-0.67483462,-0.063132156
0.033569336,-0.369018555,1.201416016,-4.369404337,-0.438748861,-0.066462937
0.031616211,-0.470825195,0.98815918,-4.369404337,-0.302453302,-0.073524193
-0.016845703,-0.559326172,0.811523438,-4.369404337,-0.469392047,-0.027159721
-0.019775391,-0.74230957,0.786254883,-4.369404337,-0.717468617,0.060239973
-0.022827148,-0.751342773,0.897094727,-4.369404337,-0.756372139,0.074895409
0.013793945,-0.742919922,0.900634766,-4.369404337,-0.788347637,0.070898472
0.051513672,-0.772460938,0.72253418,-4.257756557,-0.712672292,0.100076113
0.063110352,-0.795898438,0.595703125,-4.18394645,-0.662044421,0.148971979
0.032226563,-0.889526367,0.568969727,-4.132252728,-0.595562031,0.275141964
0.025634766,-0.945556641,0.645507813,-4.071366051,-0.603555906,0.31018178
-0.018676758,-0.962036133,0.607055664,-3.8199587,-0.549597253,0.281803526
0.01171875,-0.975097656,0.529418945,-3.660747368,-0.488444114,0.243699391
0.037231445,-0.944091797,0.412109375,-3.403877536,-0.46326341,0.199333388
0.076660156,-0.963256836,0.339599609,-3.34845334,-0.527214405,0.225846405
0.061157227,-1.042602539,0.226928711,-3.297292544,-0.635797866,0.244232316
0.043579102,-1.044921875,0.223266602,-3.232542161,-0.633666166,0.226246098
0.046020508,-1.025024414,0.21081543,-3.06813481,-0.549464022,0.199733081
0.053100586,-0.984863281,0.168212891,-2.949825468,-0.518421143,0.195736144
0.057739258,-0.988769531,0.128295898,-2.639130215,-0.482715171,0.253425271
-0.020019531,-0.992797852,0.018066406,-2.250094992,-0.337359887,0.243033235
-0.027587891,-1.005615234,0.025878906,-2.02213634,-0.2431654,0.199066925
-0.025390625,-1.024780273,0.010498047,-1.525450275,-0.070897406,0.102341045
-0.043945313,-1.06237793,-0.043212891,-1.256722862,-0.015739672,0.066635072
-0.061523438,-1.05859375,-0.038330078,-0.674902035,-0.014540591,0.028131244
-0.082641602,-1.075439453,-0.002197266,-0.042186873,-0.053177651,-0.027559415
-0.070800781,-1.091308594,0.020019531,0.289692147,-0.012408891,-0.055671207
-0.026000977,-1.143554688,0.046020508,0.988356773,0.303615611,-0.124818221
-0.016479492,-1.159667969,0.067871094,1.361271016,0.51718529,-0.157326643
-0.012817383,-1.152587891,0.079345703,2.118690619,0.776986209,-0.202225571
-0.028320313,-1.116210938,0.08581543,2.784047434,0.828413468,-0.213017302
-0.023193359,-1.081787109,0.085205078,3.092211294,0.843068905,-0.214482846
-0.020996094,-1.041748047,0.129760742,3.640191386,1.079154663,-0.215815158
0.058837891,-1.072143555,0.283447266,3.894929518,1.275004587,-0.222077026
0.08203125,-1.061523438,0.248901367,4.361905017,1.494836134,-0.153329706
0.075195313,-1.05847168,0.144165039,4.361905017,1.51801837,-0.098571666
0.046508789,-1.027099609,0.204345703,4.361905017,1.612079625,-0.024095403
0.058105469,-1.005493164,0.310058594,4.361905017,1.723460943,0.042919911
0.035888672,-0.990112305,0.407958984,4.361905017,1.687488508,0.070498778
-0.013427734,-0.892456055,0.561401367,4.361905017,1.456332305,0.137114398
0.01171875,-0.738891602,0.568847656,4.361905017,1.303782535,0.292595256
-0.031860352,-0.662109375,0.605712891,4.361905017,1.303782535,0.355613633
-0.124145508,-0.580078125,0.629394531,4.361905017,1.237433377,0.417965854
-0.134399414,-0.547241211,0.748901367,4.361905017,1.06916232,0.423828028
-0.121826172,-0.5,0.818481445,4.361905017,0.685056653,0.432221596
-0.133911133,-0.338989258,0.867431641,4.361905017,0.627101064,0.460466619
-0.166259766,-0.249633789,0.916015625,4.361905017,0.499598766,0.499636604
-0.165771484,-0.085449219,1.042114258,4.361905017,0.473352212,0.510561566
-0.069946289,0.006347656,1.063842773,4.361905017,0.455365994,0.559590662
0.008544922,0.136230469,1.145874023,4.361905017,0.572476255,0.608886221
-0.051391602,0.187988281,1.090820313,4.361905017,0.860921891,0.724930632
-0.156860352,0.273071289,0.972167969,4.361905017,0.783781003,0.765965854
-0.124511719,0.364257813,0.914428711,4.361905017,0.404738123,0.827118993
-0.008300781,0.546020508,0.914306641,4.361905017,0.276303207,0.882143496
-0.068237305,0.618652344,0.955078125,4.361905017,0.184906576,0.932238442
-0.18347168,0.691772461,0.892822266,4.361905017,0.130814692,0.896932164
-0.14453125,0.745727539,0.646118164,4.361905017,-0.063702919,0.842174124
-0.088623047,0.817993164,0.745117188,4.361905017,0.002646239,0.774492653
-0.138305664,0.837036133,0.673706055,4.361905017,0.076323115,0.71507152
-0.185058594,0.881347656,0.470703125,4.141407313,0.129082686,0.60448959
-0.166870117,0.905517578,0.361328125,3.923441004,0.064199072,0.580374736
-0.151367188,0.982543945,0.335205078,3.557588017,-0.232906594,0.535475808
-0.138427734,1.061035156,0.435913086,3.425422626,-0.253557437,0.491243036
-0.077758789,1.042724609,0.367919922,3.143105628,0.014770282,0.386922974
-0.076293945,1.005493164,0.094360352,2.985892764,0.122820818,0.342556971
-0.09777832,0.975219727,0.029296875,2.709571171,-0.040787146,0.324570754
-0.09362793,0.973999023,0.053222656,2.45070287,-0.439148555,0.334296634
-0.076538086,1.020996094,0.157836914,2.337456316,-0.476852996,0.33269786
-0.014526367,1.047363281,0.12902832,2.085782502,-0.124456365,0.289664169
-0.025146484,1.03894043,0.012329102,1.947888168,0.025162319,0.260086833
-0.101196289,1.018676758,-0.121459961,1.673698275,-0.064369075,0.214921443
-0.110839844,1.016967773,-0.109130859,1.495301644,-0.204928034,0.190806588
-0.086669922,1.056030273,-0.061157227,1.075090311,-0.291661572,0.120860187
-0.01159668,1.099487305,0.001586914,0.867649269,-0.190139366,0.07502864
-0.102172852,1.128295898,-0.142211914,0.310609452,0.1154931,-0.009173504
-0.124023438,1.117431641,-0.186645508,-0.437750426,0.11655895,-0.083116842
-0.137451172,1.091796875,-0.181030273,-0.808133275,0.012638582,-0.112028022
-0.170166016,1.071899414,-0.193359375,-1.543436492,-0.040653914,-0.154928481
-0.196044922,1.06262207,-0.19543457,-1.905692235,-0.020535997,-0.158525725
-0.214599609,1.082763672,-0.164794922,-2.648056708,-0.107402766,-0.129481314
-0.15637207,1.084594727,-0.012451172,-3.016307857,-0.166157743,-0.101635985
-0.126464844,1.064819336,0.077026367,-3.715372177,-0.137779489,-0.063132156
-0.117919922,1.032592773,0.092773438,-4.009679987,-0.03692344,-0.070193412
-0.111694336,0.902832031,0.173095703,-4.369404337,0.209554356,-0.13334502
-0.073120117,0.868896484,0.175048828,-4.369404337,0.302949455,-0.159591574
-0.032836914,0.899047852,0.194702148,-4.369404337,0.266044402,-0.221144408
-0.000244141,0.928344727,0.30456543,-4.369404337,0.106300144,-0.236466
-0.013061523,0.835449219,0.405029297,-4.369404337,-0.18414396,-0.247524193
-0.039672852,0.746826172,0.453979492,-4.369404337,-0.227577345,-0.258182693
0.021240234,0.588623047,0.725463867,-4.369404337,0.002246545,-0.294021896
0.040771484,0.596435547,0.791625977,-4.369404337,0.20142725,-0.329994331
0.05090332,0.572875977,0.943969727,-4.369404337,0.405803973,-0.44910306
-0.003173828,0.491699219,0.97644043,-4.369404337,0.337189884,-0.505193413
-0.047363281,0.296142578,0.985961914,-4.369404337,0.115359868,-0.569410871
-0.032592773,0.237670898,1.021240234,-4.369404337,0.022497694,-0.564747777
0.02355957,0.245239258,1.176757813,-4.369404337,0.015836132,-0.527709492
-0.018432617,0.193725586,1.253051758,-4.369404337,0.070594172,-0.510522662
-0.100219727,0.057617188,1.264160156,-4.369404337,-0.166424205,-0.461227103
-0.154418945,-0.173095703,1.025390625,-4.369404337,-0.389719765,-0.4189928
-0.088989258,-0.230712891,0.957519531,-4.369404337,-0.649254221,-0.343450687
-0.044555664,-0.290405273,1.203613281,-4.369404337,-0.589566626,-0.313473657
-0.014282227,-0.350463867,1.232788086,-4.369404337,-0.366537529,-0.294688052
-0.060180664,-0.513183594,1.005004883,-4.369404337,-0.317908126,-0.26324548
-0.065917969,-0.56628418,0.976928711,-4.369404337,-0.342689137,-0.205156659
-0.057128906,-0.610595703,0.944091797,-4.369404337,-0.381459428,-0.18170796
-0.017700195,-0.633300781,0.850341797,-4.369404337,-0.548398172,-0.147867225
-0.033447266,-0.702392578,0.763793945,-4.369404337,-0.605820837,-0.122420058
-0.051879883,-0.76574707,0.645751953,-4.369404337,-0.533742736,-0.020631391
-0.04675293,-0.801025391,0.640625,-4.326903571,-0.321238907,0.029596787
-0.024291992,-0.832641602,0.651977539,-4.215255791,-0.383191434,0.038123587
0.006347656,-0.8984375,0.577392578,-4.016341549,-0.736520684,0.040521749
0.012084961,-0.94909668,0.516357422,-3.942264979,-0.825918846,0.052779023
0.012817383,-0.913818359,0.443359375,-3.841675393,-0.672969382,0.161229253
0.020385742,-0.905517578,0.439575195,-3.774526847,-0.582638601,0.232774429
0.011230469,-0.96484375,0.430419922,-3.717503876,-0.529612567,0.276341045
0.021240234,-1.014282227,0.340087891,-3.518989328,-0.442212873,0.270345639
-0.023681641,-1.01171875,0.20324707,-3.287166969,-0.476320071,0.206927568
-0.056640625,-1.004394531,0.123291016,-3.172454871,-0.517754987,0.202264475
-0.06628418,-0.987792969,0.133056641,-2.909722865,-0.636996947,0.205861719
-0.045776367,-0.985839844,0.161499023,-2.760104181,-0.671237376,0.19533645
-0.028076172,-0.996337891,0.122192383,-2.470725927,-0.565185309,0.126189437
-0.000854492,-0.959350586,0.056152344,-2.328168499,-0.49657122,0.102207813
-0.018554688,-0.978515625,0.021118164,-1.975771868,-0.502166932,0.09328132
-0.030517578,-1.029296875,-0.065795898,-1.774459463,-0.486712108,0.086486527
-0.052978516,-1.059082031,-0.081298828,-1.302554409,-0.378794803,0.085953602
-0.08996582,-1.063598633,-0.002685547,-0.716869875,-0.217318539,0.048782086
-0.092041016,-1.07824707,0.017822266,-0.391252723,-0.094612567,0.022135838
-0.075927734,-1.109008789,-0.037353516,0.329528288,0.147335366,-0.002911636
-0.078857422,-1.118164063,-0.037963867,0.708304705,0.226741186,-0.00770796
-0.114013672,-1.111694336,-0.044067383,1.425222011,0.348914233,-0.016767685
-0.123901367,-1.099609375,-0.044067383,1.766160756,0.434981615,-0.027292953
-0.145629883,-1.078857422,-0.031494141,2.400874386,0.585133223,-0.091110717
-0.153808594,-1.073486328,-0.005981445,2.719829976,0.630298613,-0.145335832
-0.114624023,-1.139648438,0.114013672,3.445274081,0.849330773,-0.317470595
-0.099487305,-1.086181641,0.110717773,3.749174541,1.013471661,-0.365567072
-0.04309082,-1.083374023,0.12890625,4.263580361,1.327897389,-0.360371054
-0.01953125,-1.059204102,0.166992188,4.361905017,1.390649304,-0.331726337
0.016723633,-1.00378418,0.201782227,4.361905017,1.307646241,-0.251254668
0.034912109,-0.988037109,0.200073242,4.361905017,1.211320054,-0.211818221
-0.006591797,-0.876831055,0.32409668,4.361905017,1.140307802,-0.158925418
0.035522461,-0.835083008,0.431274414,4.361905017,1.195731999,-0.137341957
0.041259766,-0.838623047,0.494506836,4.361905017,1.378658492,-0.094574729
-0.004394531,-0.831787109,0.583374023,4.361905017,1.431151601,-0.063132156
0.007080078,-0.785766602,0.567138672,4.361905017,1.317505352,0.070099084
-0.079589844,-0.623657227,0.560791016,4.361905017,0.936330773,0.247163403
-0.063110352,-0.533813477,0.765136719,4.361905017,0.7372833,0.332031703
-0.027709961,-0.512329102,0.807617188,4.361905017,0.866384372,0.370269069
-0.094848633,-0.505126953,0.969360352,4.361905017,1.162290957,0.455004138
-0.130981445,-0.462524414,0.98840332,4.361905017,1.043048997,0.535209345
-0.155761719,-0.264892578,0.884765625,4.361905017,0.395411936,0.725330326
-0.113525391,-0.162109375,0.920532227,4.361905017,0.323733529,0.789947477
-0.077758789,-0.058959961,1.092163086,4.361905017,0.782715153,0.893068458
-0.107666016,-0.076782227,1.150024414,4.361905017,0.94459111,0.929707049
-0.187866211,-0.030395508,1.181640625,4.361905017,0.664139349,0.956220066
-0.212890625,0.010864258,1.125488281,4.361905017,0.311742717,0.983932164
-0.24206543,0.246704102,0.888916016,4.361905017,-0.366803991,1.011377799
-0.137695313,0.35144043,0.982543945,4.361905017,-0.299122521,0.996056207
-0.08203125,0.477172852,1.128417969,4.361905017,0.483744249,0.981134308
-0.129394531,0.440063477,1.137084961,4.361905017,0.69971209,0.954221597
-0.271118164,0.481689453,1.040161133,4.361905017,0.635894326,0.921313481
-0.272338867,0.530883789,0.914306641,4.361905017,0.032623268,0.866155747
-0.21862793,0.730224609,0.797729492,4.361905017,-0.261018386,0.85682956
-0.147338867,0.771728516,0.805908203,4.287029059,-0.540937223,0.827918381
-0.090576172,0.785400391,0.825805664,4.220146977,-0.404108739,0.778889284
-0.099731445,0.81237793,0.779785156,3.928770253,0.105234294,0.604089897
-0.133178711,0.852783203,0.651733398,3.759300115,0.200094937,0.530546252
-0.12902832,0.89831543,0.601074219,3.478581891,-0.028796334,0.490043955
-0.131958008,1.026977539,0.570068359,3.372529824,-0.212655446,0.506031704
-0.098754883,0.971313477,0.539794922,3.142572703,-0.255555905,0.505232316
-0.110351563,0.87487793,0.374267578,2.973502258,-0.128186839,0.479385455
-0.154663086,0.882324219,0.324829102,2.567679899,-0.085153149,0.441414552
-0.137084961,0.920654297,0.312133789,2.208488475,-0.42462635,0.460599851
-0.115844727,0.993164063,0.375610352,2.084050496,-0.540537529,0.474189437
-0.083374023,0.944213867,0.377929688,1.904588015,-0.403442582,0.454204751
-0.030029297,0.889892578,0.249267578,1.657177601,-0.027996946,0.354681014
-0.03503418,0.924438477,0.223144531,1.539667647,0.030758031,0.313112867
-0.044677734,0.950073242,0.243408203,1.331960143,-0.150436457,0.295926037
-0.088134766,1.036010742,0.280883789,1.270140847,-0.233972444,0.291129712
-0.0546875,1.005249023,0.256591797,1.174081123,-0.180413486,0.21358913
-0.035644531,0.935058594,0.206542969,1.084816191,-0.119127115,0.145774429
-0.024658203,0.920776367,0.156860352,0.807295517,-0.035058202,0.072497247
-0.015991211,0.981079102,0.157592773,0.634627829,-0.026931097,0.006681014
-0.028930664,0.997192383,0.172973633,0.586531351,-0.041719764,-0.013969829
-0.030273438,0.990356445,0.142944336,0.462759529,-0.088350698,-0.049142876
-0.009033203,1.019042969,0.095092773,0.206822316,-0.17015468,-0.167185755
-0.026855469,1.0234375,0.171142578,0.104900417,-0.188540591,-0.234867225
-0.085205078,1.07019043,0.185668945,-0.030995449,-0.141776426,-0.263511942
-0.059570313,1.100708008,0.150024414,-0.074562064,-0.081289443,-0.282031085
-0.025878906,1.06628418,0.099609375,-0.156366046,0.076456346,-0.267642111
-0.002929688,1.027587891,0.104736328,-0.149837715,0.160924953,-0.261913167
0.030883789,1.017211914,0.084106445,-0.096411988,0.286961706,-0.230070901
-0.034912109,1.069335938,0.079589844,-0.076560533,0.311476255,-0.170116842
-0.042724609,1.04699707,0.095458984,-0.07083159,0.256052059,-0.036086214
-0.024414063,0.994262695,0.107299805,-0.081490089,0.060202135,-0.019165847
-0.036254883,1.059082031,0.141845703,-0.019937256,-0.067166931,0.012543188
-0.046142578,1.102416992,0.13269043,-0.017272631,-0.087018386,0.071298165
-0.064208984,1.104736328,0.143432617,-0.025000043,-0.052911188,0.195869375
-0.031616211,1.075805664,0.135742188,0.00644253,0.027027556,0.182679483
-0.033935547,1.035766602,0.159912109,0.021231198,0.051941798,0.158164934
-0.043579102,1.032104492,0.158081055,0.075589544,0.036220512,0.129253755
-0.049682617,1.014038086,0.135253906,0.070127063,0.002912701,0.143642729
-0.050292969,1.004638672,0.140869141,0.043081121,-0.041986227,0.167491121
-0.033325195,0.967529297,0.141845703,0.042548196,-0.046249626,0.152968916
-0.043823242,0.963378906,0.145629883,0.047211289,-0.016672291,0.107670294
-0.048217773,0.973510742,0.127319336,0.001912668,0.050875948,0.076360953
-0.025756836,0.963989258,0.129272461,-0.062571253,0.138408873,0.026399237
-0.025878906,0.968261719,0.148193359,-0.042186873,0.183441032,0.006414551
-0.032226563,0.993041992,0.147705078,0.002845286,0.233935673,0.002417614
-0.040283203,0.994995117,0.148193359,0.02149766,0.229006117,0.00734717
-0.044555664,1.010498047,0.125244141,0.00750838,0.149999991,0.017872438
-0.043823242,0.991943359,0.12878418,-0.00967845,0.091644708,0.021069988
-0.032470703,0.973754883,0.149414063,0.050009146,0.038751905,0.008679482
-0.03112793,0.994018555,0.153198242,0.097572698,0.071660022,0.006947476
-0.036132813,1.027954102,0.153198242,0.146868257,0.126551293,0.010944413
-0.03527832,1.021972656,0.133911133,0.202425685,0.229006117,-0.013303672
-0.041992188,1.009277344,0.130737305,0.19656351,0.257650833,-0.035420058
-0.052490234,1.009033203,0.123291016,0.174580356,0.23260336,-0.030490502
-0.037353516,0.975341797,0.131835938,0.149532882,0.192633988,-0.021031084
-0.026855469,0.963867188,0.117431641,0.098505317,0.110430313,0.012809651
-0.040039063,0.967529297,0.129272461,0.053206695,0.028759562,0.069699391
-0.030639648,0.953979492,0.140258789,0.041482346,-0.012009198,0.089684077
-0.021606445,0.936889648,0.135742188,0.021231198,-0.047848401,0.076893878
-0.014648438,0.957397461,0.14050293,0.010039773,-0.022134772,0.06636861
-0.017944336,0.987548828,0.131713867,-0.007280288,0.104568138,0.070498778
-0.033935547,1.014038086,0.126098633,-0.068033734,0.189303207,0.103540126
-0.036376953,1.006103516,0.120117188,-0.110800962,0.161191415,0.1136657
-0.033203125,0.981323242,0.142089844,-0.139045985,0.004777939,0.108069988
-0.024902344,0.985229492,0.158691406,-0.122791774,-0.06383615,0.09861057
-0.007080078,1.007568359,0.139526367,-0.084687639,-0.069831556,0.090217002
-0.002075195,1.030639648,0.142333984,-0.030862217,0.06499846,0.089950539
0.00012207,1.016967773,0.16015625,0.065597201,0.165321584,0.046650386
-0.005004883,1.026245117,0.153320313,0.105833035,0.11442725,-0.016367991
-0.004638672,1.038085938,0.162231445,0.137275608,-0.020269534,-0.046877945
0.002197266,1.059448242,0.138793945,0.15246397,-0.061304757,-0.046611482
-0.006347656,1.06640625,0.137695313,0.130747277,-0.062503838,-0.012504285
-0.003540039,1.048217773,0.134033203,0.10956351,-0.031327727,0.007480401
-0.006713867,1.043823242,0.133056641,0.053606389,0.056738123,0.029596787
-0.010498047,1.040649414,0.142578125,0.021897354,0.097373651,0.029330325
-0.014770508,1.031982422,0.147460938,-0.007280288,0.12841653,0.001484995
-0.020141602,1.014770508,0.161132813,-0.000352263,0.107765688,-0.019965234
-0.024414063,1.012207031,0.156616211,0.019499191,0.035954049,-0.061133688
-0.023071289,1.008911133,0.133789063,0.014303173,0.013704432,-0.075789124
-0.022583008,1.015014648,0.139526367,-0.02579943,0.014370588,-0.083250074
-0.010131836,0.999389648,0.142333984,-0.030728986,0.043947923,-0.085914698
-0.012329102,0.991455078,0.148925781,-0.033526842,0.12308728,-0.093242417
-0.011108398,0.979614258,0.155029297,-0.030595755,0.147202135,-0.096573198
-0.025878906,0.978881836,0.132324219,-0.07083159,0.133612548,-0.086580855
-0.02355957,0.982788086,0.143676758,-0.09881015,0.068995397,-0.080318986
-0.020629883,0.981445313,0.145019531,-0.09667845,0.055539041,-0.076055587
-0.007446289,0.993408203,0.13659668,-0.093081207,0.115759562,-0.055937669
-0.016235352,1.001831055,0.14050293,-0.093081207,0.158393559,-0.037951452
-0.025634766,1.004272461,0.138305664,-0.103206781,0.195165382,-0.00877381
-0.020874023,1.008911133,0.142211914,-0.111467118,0.19290045,-0.010372585
-0.024536133,1.012573242,0.142822266,-0.101474775,0.162656959,-0.026227103
-0.035644531,1.0234375,0.138427734,-0.109468649,0.123220512,-0.022096934
-0.041748047,1.015136719,0.143432617,-0.106137868,0.098972426,-0.011704897
-0.033935547,1.001098633,0.144165039,-0.091349201,0.064065841,-0.012637516
-0.021606445,1.007080078,0.127685547,-0.093081207,0.065797847,-0.021963703
-0.021484375,1.014160156,0.126220703,-0.116529905,0.100704432,-0.021430778
-0.030273438,1.040161133,0.150146484,-0.082822401,0.112828475,-0.001179629
-0.031860352,1.017700195,0.142211914,-0.011410456,0.082851446,0.00308377
-0.027709961,0.992675781,0.146118164,0.011105623,0.061134754,-0.007308266
-0.032104492,0.989013672,0.133300781,0.032422622,0.044747311,-0.014369522
-0.031616211,0.987792969,0.133666992,0.036819253,0.044347617,-0.00451041
-0.025390625,0.982543945,0.133544922,0.038018334,0.037686055,0.021203219
-0.018188477,0.97668457,0.144897461,0.048277139,0.037686055,0.029197093
-0.013427734,0.978759766,0.145507813,0.095440999,0.062600297,0.028930631
-0.016357422,1.000488281,0.138549805,0.10530011,0.088447158,0.027998012
-0.02722168,1.011108398,0.14050293,0.133944827,0.136010711,0.037990355
-0.037963867,1.014282227,0.147705078,0.163788625,0.132280236,0.062371672
-0.033203125,0.996826172,0.145263672,0.157659988,0.078321584,0.056509498
-0.036621094,0.997314453,0.150390625,0.158859069,0.04354823,0.050514092
-0.038085938,0.988037109,0.151733398,0.164721244,0.001447158,0.035858655
-0.028076172,0.98828125,0.140869141,0.150199038,0.000781002,0.026399237
-0.018066406,1.006958008,0.151245117,0.125418028,0.054872885,0.004549314
-0.02355957,1.018188477,0.136352539,0.107831504,0.085116377,-0.003311329
-0.026489258,1.018188477,0.142944336,0.088779437,0.099638582,-0.009972891
-0.017578125,1.012573242,0.13671875,0.049609452,0.077522196,-0.025827409
-0.021362305,1.022827148,0.129394531,-0.000485495,0.032623268,-0.02596064
-0.020996094,1.025146484,0.137084961,-0.016473244,0.024362931,-0.019165847
-0.028442383,1.043579102,0.144775391,-0.012876,0.041816224,-0.005043335
-0.027099609,1.043945313,0.133789063,-0.023268037,0.054606423,-0.00344456
-0.023193359,1.008056641,0.135864258,-0.048182279,0.046479317,-0.023029553
-0.024414063,0.999267578,0.140258789,-0.052045985,0.031557418,-0.037551758
-0.024169922,0.997192383,0.138549805,-0.052978603,0.002246545,-0.048876414
-0.02331543,1.00390625,0.146728516,-0.03752378,-0.00148393,-0.051008113
-0.016235352,0.997802734,0.148193359,-0.018604943,0.006643176,-0.052073963
-0.010498047,0.995849609,0.145263672,0.002578824,0.042882074,-0.059401682
-0.017700195,0.999145508,0.12097168,-0.034459461,0.073791721,-0.044479783
-0.032470703,0.99597168,0.135498047,-0.052712141,0.037952518,0.012942882
-0.022705078,0.961303711,0.140991211,-0.024333887,-0.007745798,0.021602913
-0.021850586,1.003051758,0.131713867,-0.001817807,0.01890045,0.062371672
-0.013793945,1.001586914,0.139404297,0.037485409,0.047145473,0.06530276
-0.017211914,1.0078125,0.145263672,0.082384337,0.078055121,0.056909192
-0.025634766,1.013183594,0.131469727,0.071059682,0.082451752,0.056109804
-0.028442383,1.012084961,0.133789063,0.060534414,0.068728934,0.055177185
-0.026611328,1.016357422,0.133911133,0.059468564,0.036353743,0.052912254
-0.022827148,1.020507813,0.136108398,0.064531351,0.023963237,0.049315011
-0.022705078,1.021362305,0.140625,0.086647737,0.02103215,0.035325731
-0.025024414,1.032470703,0.126831055,0.091710524,0.029692181,0.026132775
-0.023925781,1.023681641,0.131713867,0.070793219,0.05114241,0.006681014
-0.021484375,1.01184082,0.131225586,0.06120057,0.054206729,-0.00557626
-0.02355957,1.008789063,0.135864258,0.051741152,0.039018368,-0.020364928
-0.016479492,1.001953125,0.131347656,0.047211289,0.02742725,-0.027292953
-0.016723633,0.997924805,0.123657227,0.001912668,0.017168444,-0.028891727
-0.018432617,1.006591797,0.123535156,-0.015807087,0.014637051,-0.025161253
-0.020507813,1.008911133,0.130371094,-0.026465587,0.011439501,-0.015835066
-0.010864258,0.99609375,0.130737305,-0.027531436,0.010640113,-0.015968297
-0.012695313,1.00012207,0.12487793,-0.025932662,0.015836132,-0.015568603
-0.014770508,1.004638672,0.129760742,-0.019804025,0.028759562,-0.006775342
-0.014282227,1.004394531,0.126464844,-0.02579943,0.036220512,0.000818839
-0.008789063,0.985961914,0.132446289,-0.017805556,0.062999991,0.010811182
-0.006103516,0.994506836,0.131225586,-0.004615663,0.078321584,0.015607507
-0.009155273,1.005493164,0.130493164,-0.000751957,0.085782533,0.025200156
-0.009033203,1.003295898,0.118896484,-0.006081207,0.08218529,0.031062331
-0.012573242,0.999633789,0.126708984,-0.0150077,0.058869822,0.050514092
-0.018920898,1.00769043,0.130371094,-0.012476306,0.041682992,0.063703985
-0.01953125,1.010620117,0.135742188,0.024428747,0.01024042,0.073163403
-0.010375977,1.005981445,0.137695313,0.045878977,0.006509945,0.06743446
-0.009765625,1.010253906,0.122924805,0.055071933,0.021431844,0.054244567
-0.018066406,1.021972656,0.126342773,0.049742683,0.044347617,0.051313479
-0.015136719,1.011352539,0.137695313,0.064797813,0.052474723,0.035725424
-0.012573242,1.001831055,0.141479492,0.075989237,0.050875948,0.023201688
-0.013549805,1.006591797,0.127685547,0.07305815,0.048078092,0.01161057
-0.014160156,1.010864258,0.126586914,0.048543602,0.046479317,0.00414962
-0.017089844,1.011230469,0.135009766,0.040016803,0.055006116,0.005881626
-0.014770508,1.001831055,0.131347656,0.036952484,0.055539041,0.001484995
-0.008911133,0.995605469,0.134155273,0.02895861,0.05540581,-0.014236291
-0.006225586,0.999267578,0.121826172,0.017633954,0.058470129,-0.019032616
-0.009277344,1.000366211,0.127685547,-0.021269568,0.050343023,-0.015035678
-0.009887695,0.997314453,0.129882813,-0.03432623,0.03928483,-0.006908573
-0.009643555,1.006591797,0.135864258,-0.034459461,0.022630925,0.00947887
-0.010498047,1.006225586,0.131835938,-0.034725923,0.020632456,0.016939819
-0.01159668,1.000610352,0.126586914,-0.047382891,0.01676875,0.021869375
-0.007568359,0.982055664,0.126831055,-0.054843841,0.016901982,0.018405363
-0.003295898,0.984375,0.123168945,-0.065235878,0.021698306,0.007746864
-0.007324219,1.011962891,0.131347656,-0.042320104,0.025029087,0.014541657
-0.00402832,1.014892578,0.136108398,-0.014741237,0.025828475,0.017605976
0.00012207,1.023193359,0.130615234,0.00857423,0.021298613,0.008546251
-0.002197266,1.025878906,0.119873047,0.020298579,0.022897387,-0.003178098
-0.008666992,1.02734375,0.118041992,0.021630891,0.026228168,-0.004910104
-0.009887695,1.018188477,0.135986328,0.022030585,0.020765688,0.001218533
-0.009521484,1.012695313,0.136108398,0.04401374,-0.004814711,-0.000779936
-0.003295898,1.016113281,0.12890625,0.061600263,-0.021735078,-0.015968297
-0.009521484,1.024780273,0.127319336,0.061467032,-0.020402766,-0.023562478
-0.012207031,1.028442383,0.123168945,0.059868257,-0.013741204,-0.038217914
-0.004516602,1.016723633,0.131713867,0.073591075,-0.01547321,-0.043680395
-0.004516602,1.005859375,0.130493164,0.092909605,-0.025998478,-0.062332769
-0.001586914,1.006713867,0.130493164,0.093575761,-0.034258815,-0.064464469
-0.005859375,1.00378418,0.127685547,0.087713587,-0.024399703,-0.05167427
-0.007080078,1.003295898,0.124389648,0.0719923,-0.013474741,-0.039550227
-0.012939453,0.996337891,0.123168945,0.046811596,0.002113314,-0.018899384
-0.009887695,0.991821289,0.128540039,0.041215884,-0.006813179,-0.020764622
-0.004516602,0.978149414,0.127685547,0.03442109,-0.013741204,-0.026626796
-0.006591797,0.983032227,0.12878418,0.024961672,-0.010277191,-0.02276309
-0.005004883,0.993530273,0.124023438,0.025627829,-0.000951005,-0.011305204
-0.005493164,0.999023438,0.127441406,0.016301642,0.022630925,0.012143495
-0.009033203,1.001831055,0.131591797,0.012437936,0.033689118,0.024267538
-0.012817383,0.999023438,0.127563477,0.00217913,0.041016836,0.035192499
-0.016845703,0.993408203,0.12121582,-0.013408925,0.029292487,0.035858655
-0.016357422,1.003173828,0.12121582,-0.036724392,0.002379776,0.042386986
-0.014404297,1.012939453,0.131469727,-0.034459461,0.000781002,0.047449773
-0.010742188,1.015136719,0.133056641,-0.007413519,0.012505351,0.047583005
-0.012451172,1.022460938,0.132568359,-0.001684576,0.0199663,0.040255286
-0.012939453,1.02331543,0.132568359,0.029358303,0.038885136,0.011344107
-0.008666992,1.018432617,0.127929688,0.040283265,0.046212855,-0.005709492
-0.009765625,1.014892578,0.124023438,0.039883571,0.046612548,-0.034354208
-0.01171875,1.024047852,0.129882813,0.043347584,0.039018368,-0.039550227
-0.013671875,1.02331543,0.129516602,0.048277139,0.017568138,-0.033021896
-0.009155273,1.016357422,0.123657227,0.050808533,0.004378245,-0.027825878
-0.007202148,1.01184082,0.122802734,0.040150034,-0.023067391,-0.022096934
-0.013305664,1.021850586,0.117431641,0.033488472,-0.029329259,-0.016634453
-0.011352539,1.012573242,0.123779297,0.019499191,-0.060505369,1.94518E-05
-0.009399414,1.005004883,0.127075195,0.032422622,-0.075560499,0.004949008
-0.006103516,0.998046875,0.130859375,0.052807002,-0.068499244,0.006547783
-0.004516602,0.999389648,0.12109375,0.048277139,-0.042252689,0.003217002
-0.003173828,0.99230957,0.123413086,0.046545133,0.037419593,-0.012237822
-0.004150391,0.98815918,0.118041992,0.033754934,0.072992334,-0.019565541
-0.007324219,0.987548828,0.117431641,0.003911136,0.096840726,-0.024228634
-0.020141602,1.00402832,0.120361328,-0.026199124,0.049410404,-0.003311329
-0.022460938,1.004516602,0.12902832,-0.027264974,0.013304738,0.005748395
-0.019775391,1.001831055,0.11730957,-0.039655479,-0.046116395,0.013609038
-0.018676758,0.994506836,0.121337891,-0.038589629,-0.047315476,0.007880095
-0.010375977,1.001586914,0.120727539,-0.034592692,-0.027996946,0.001751458
-0.007446289,1.002685547,0.128417969,-0.008479369,0.035954049,-0.018099997
-0.007080078,1.00769043,0.12109375,-0.00101842,0.083784064,-0.031822815
-0.010864258,1.013183594,0.118286133,-0.006214438,0.088313927,-0.028625265
-0.012207031,1.025756836,0.127685547,-0.00754675,0.054473191,-0.012104591
-0.012695313,1.017333984,0.131347656,0.003911136,0.026094937,-0.00451041
-0.008056641,1.005981445,0.126953125,0.01936596,-0.017205216,-0.002112248
-0.006713867,1.003051758,0.126220703,0.02469521,-0.017338447,-0.006109185
-0.005126953,1.019165039,0.119384766,0.021097966,0.01890045,-0.003844254
-0.003417969,1.006835938,0.125244141,0.019499191,0.041016836,-0.000247011
-0.006225586,0.997070313,0.121826172,0.021097966,0.052741185,0.003217002
-0.006958008,0.995849609,0.128173828,0.024029054,0.040750374,0.005481933
-0.009399414,1.010009766,0.124267578,0.026160753,0.034088812,0.011210876
-0.011474609,1.013671875,0.120605469,0.016834567,0.026094937,0.029063862
-0.015136719,1.00390625,0.123046875,0.002578824,0.020632456,0.030795868
-0.013061523,1.001342773,0.129150391,-0.001951038,0.017168444,0.02133645
-0.009155273,0.993530273,0.123901367,-0.001284882,0.029292487,-0.000380242
-0.01184082,1.00793457,0.117797852,4.74303E-05,0.042215917,-0.019965234
-0.0078125,1.014892578,0.126586914,-0.000219032,0.047145473,-0.024361865
-0.015869141,1.026123047,0.116088867,-0.015673856,0.04354823,-0.011305204
-0.018554688,1.025756836,0.119262695,-0.025133274,0.031024493,-0.001579323
-0.016723633,1.016235352,0.132080078,-0.024467118,-0.003215936,0.001218533
-0.012084961,1.008789063,0.123657227,-0.021269568,-0.016805522,-0.00770796
-0.006591797,1.00012207,0.12512207,-0.018072018,-0.00801226,-0.025028021
-0.007080078,0.998046875,0.133178711,-0.016340012,0.005310864,-0.026493565
-0.003662109,1.00793457,0.127075195,-0.00754675,0.025029087,-0.021164315
-0.00769043,1.025024414,0.13293457,0.008307767,0.037552824,-0.011438435
-0.006835938,1.014526367,0.131835938,0.02149766,0.037419593,-0.00983966
-0.00402832,1.0078125,0.12902832,0.055604858,0.024362931,-0.021830472
-0.007568359,1.002563477,0.133911133,0.064531351,0.029692181,-0.020098466
-0.009643555,0.999755859,0.126586914,0.056137783,0.030891262,-0.011038741
-0.014404297,0.998779297,0.133789063,0.050142377,0.018367525,0.001218533
-0.010986328,1.007080078,0.133300781,0.044280202,0.010506882,0.01374227
-0.011230469,1.010742188,0.131591797,0.034820784,0.014104126,0.016406894
-0.012084961,1.004150391,0.130615234,0.033222009,0.019166913,0.012409957
-0.006469727,0.990356445,0.134277344,0.036419559,0.033156193,0.004949008
-0.008911133,0.992431641,0.124755859,0.033621703,0.040750374,0.005881626
-0.012451172,1.002563477,0.120239258,0.006708992,0.048611017,0.028131244
-0.017211914,1.00012207,0.124755859,-0.017405862,0.035687587,0.050647323
-0.011108398,0.992797852,0.12890625,-0.020203718,0.022364463,0.050114398
-0.010742188,0.994750977,0.130615234,-0.014741237,0.00810872,0.032128181
-0.006103516,0.997680664,0.131347656,-0.007013825,0.017301675,0.019337982
-0.009765625,1.009643555,0.122070313,-0.012209844,0.05540581,0.004815776
-0.009155273,1.01159668,0.117919922,-0.023001574,0.070727403,0.003616695
-0.009643555,1.020507813,0.123413086,-0.025932662,0.071793253,0.004416083
-0.004516602,1.019165039,0.127929688,-0.005015357,0.040750374,-0.006508879
-0.003295898,1.020263672,0.125854492,0.006042836,0.026228168,-0.012104591
-0.012939453,1.030395508,0.121337891,0.017500723,0.020099531,-0.003311329
-0.013427734,1.021606445,0.115478516,0.000447124,0.020765688,0.007480401
-0.008666992,1.004272461,0.120483398,-0.005681513,0.013304738,-0.005043335
-0.006835938,1.014770508,0.124755859,0.010839161,0.016235825,-0.017833534
-0.008300781,1.013427734,0.127197266,0.028292453,0.039817755,-0.019032616
-0.00378418,0.997192383,0.123779297,0.032422622,0.055006116,-0.036619139
-0.010986328,0.99987793,0.123413086,0.02682691,0.046346086,-0.039283764
-0.002441406,1.005981445,0.116699219,0.01723426,0.027027556,-0.023296015
-0.004760742,1.007446289,0.123657227,0.000980049,0.021964769,-0.000913167
-0.008056641,1.010742188,0.123291016,0.002978518,0.019033681,0.010677951
-0.009521484,1.005981445,0.128540039,0.022829972,0.012505351,0.024400769
-0.009765625,0.999755859,0.12109375,0.029491534,0.010506882,0.024134306
-0.006713867,0.996948242,0.118652344,0.031356772,0.011439501,0.000152683
-0.002563477,0.990722656,0.121826172,0.035353709,0.017301675,-0.005443029
-0.001098633,0.999633789,0.124511719,0.046278671,0.038352211,0.003616695
-0.008056641,1.010009766,0.108886719,0.042414965,0.049277173,0.016406894
-0.009765625,1.010253906,0.111816406,0.012304704,0.037686055,0.042653449
-0.01574707,1.001953125,0.129760742,0.006176067,0.015436438,0.046250692
-0.011108398,1.002685547,0.128295898,0.019232729,-0.017471678,0.043719299
-0.009277344,1.003417969,0.117797852,0.025228135,-0.025332322,0.030129712
-0.013916016,1.005004883,0.123291016,0.028825378,-0.019869841,0.019471213
-0.008178711,1.007324219,0.119873047,0.027493066,-0.003615629,0.004815776
-0.001098633,1.009277344,0.119628906,0.03548694,0.027826943,-0.008240885
-0.004150391,1.012695313,0.122314453,0.031223541,0.046879011,-0.007841191
-0.002685547,1.00793457,0.115234375,0.015901948,0.05966921,-0.004243948
-0.001464844,1.01965332,0.126953125,0.019499191,0.031157724,-0.002245479
-0.004882813,1.023071289,0.131347656,0.02682691,0.012905044,0.000685608
-0.006713867,1.024169922,0.126464844,0.052140845,-0.002150086,0.012010263
-0.006958008,1.009765625,0.108764648,0.025361366,0.004111783,0.016273663
-0.006225586,1.007446289,0.111572266,0.011638548,0.001580389,0.013475807
-0.00402832,1.003540039,0.127075195,0.014836098,-0.011076579,0.008546251
-0.003417969,1.007324219,0.123291016,0.030690616,0.004245014,0.013342576
-0.000488281,1.004760742,0.122314453,0.033222009,0.017568138,0.011743801
-0.003540039,0.998657227,0.117431641,0.021764123,0.032223574,-0.001446092
-0.004394531,1.001464844,0.119750977,0.010572698,0.027826943,-0.011704897
-0.002807617,1.001708984,0.119018555,-0.004349201,0.016369057,-0.019832003
-0.006835938,1.005493164,0.115234375,-0.01394185,0.009574263,-0.013570135
-0.009399414,1.006835938,0.123535156,-0.026065893,-0.039055139,0.00841302
-0.010864258,1.008422852,0.115356445,-0.016206781,-0.103405829,0.021469681
-0.010498047,1.004638672,0.126831055,-0.011277225,-0.12285759,0.023867844
-0.010375977,1.018554688,0.123535156,-0.014874469,-0.124056671,0.017206282
-0.004394531,1.006713867,0.115356445,-0.016340012,-0.107269535,0.010011795
-0.003540039,0.995361328,0.113037109,-0.018738175,-0.07023125,0.001218533
-0.005004883,0.992431641,0.124145508,-0.002750426,-0.048914251,0.003749926
-0.006469727,0.990844727,0.122558594,0.004710524,-0.042652383,0.005881626
-0.005249023,0.991699219,0.115356445,-0.008879063,-0.050379795,0.005748395
-0.003295898,1.001831055,0.110473633,-0.020336949,-0.058906594,0.000152683
-0.004638672,0.999389648,0.118164063,-0.011943381,-0.073162337,-0.014502753
0.004516602,0.993652344,0.124145508,0.004444061,-0.071830025,-0.022096934
0.01184082,0.990722656,0.119628906,0.029491534,-0.038788677,-0.040882539
0.014648438,1.016479492,0.106811523,0.028692147,-0.007612567,-0.046611482
0.006469727,1.030883789,0.104980469,0.012038242,0.050875948,-0.033288358
-0.006591797,1.039916992,0.124755859,0.012970861,0.059935672,-0.016501222
-0.004638672,1.026733398,0.126586914,0.044146971,0.037419593,0.010278257
0.001953125,1.001342773,0.12878418,0.05373962,0.013837663,0.012809651
0.001098633,0.999511719,0.123046875,0.065996894,-0.013741204,-0.000513473
-0.002319336,1.004272461,0.117797852,0.066263357,0.004245014,0.000152683
-0.003540039,0.996337891,0.125,0.064131657,0.04141653,0.008546251
-0.002563477,0.992675781,0.115966797,0.049875914,0.055006116,0.014408426
-0.001953125,0.996704102,0.119262695,0.016434873,0.057937204,0.015207813
-0.005493164,1.008666992,0.122192383,0.003511443,0.048611017,0.014408426
-0.008911133,1.022216797,0.130615234,0.011238855,0.023563544,0.012143495
-0.006469727,1.021118164,0.127807617,0.020565041,0.004777939,0.002417614
-0.008300781,1.013427734,0.12121582,0.02362936,0.00384532,-0.008507348
-0.006469727,1.013305664,0.119262695,0.023362897,0.021698306,-0.023962172
-0.010009766,1.004394531,0.123413086,0.015502254,0.033289424,-0.026493565
-0.008911133,1.002563477,0.126342773,-0.001284882,0.039684524,-0.029024959
-0.010375977,1.011108398,0.127319336,-0.012076613,0.033689118,-0.029957577
-0.007202148,1.011352539,0.119262695,-0.023268037,0.013970894,-0.037152064
-0.00402832,1.007080078,0.131591797,-0.02473358,0.005044401,-0.041149002
-0.002075195,1.012817383,0.121704102,-0.028863749,0.009973957,-0.036352677
-0.000854492,1.013427734,0.123046875,-0.031794836,0.018500757,-0.031023427
0.001831055,1.013183594,0.122924805,-0.025133274,0.034888199,-0.026626796
0.001953125,1.008666992,0.131103516,-0.0171394,0.041016836,-0.026360334
-0.001220703,1.006591797,0.130126953,0.008174536,0.051542104,-0.027959109
-0.004394531,1.010864258,0.120605469,0.007375149,0.057803973,-0.022363397
-0.008056641,1.010253906,0.123901367,-0.001284882,0.05966921,-0.003577792
-0.009765625,0.999145508,0.130126953,-0.000751957,0.037819286,0.003217002
-0.00769043,0.995239258,0.130126953,0.003378211,0.023430312,0.000818839
-0.003051758,0.999633789,0.131835938,0.021764123,0.015303207,-0.007841191
-0.00769043,1.002807617,0.129760742,0.028825378,0.024362931,-0.009972891
-0.008300781,1.000854492,0.120361328,0.020831504,0.051542104,-0.003178098
-0.005493164,0.98425293,0.124755859,0.016035179,0.057404279,-0.000913167
-0.007324219,0.981689453,0.126098633,0.013770248,0.058736591,-0.002778404
-0.013183594,0.997924805,0.123413086,0.002845286,0.057404279,0.001218533
-0.012939453,0.993896484,0.119873047,-0.023134806,0.04674578,0.0181389
-0.010742188,0.999145508,0.118041992,-0.034859155,0.034488505,0.022535531
-0.009277344,1.009277344,0.111206055,-0.058974009,0.005310864,0.035192499
-0.006835938,1.005126953,0.118774414,-0.064170028,-0.00801226,0.040122055
-0.002319336,1.007324219,0.122924805,-0.055643228,-0.007479335,0.040255286
0.000488281,1.015380859,0.118774414,-0.035525311,0.017035213,0.033194031
0.002929688,1.020751953,0.115966797,-0.031395142,0.032756499,0.029063862
-0.003051758,1.023193359,0.119140625,-0.023134806,0.039684524,0.028131244
-0.008056641,1.030029297,0.122924805,0.008707461,0.0157029,0.035325731
-0.004882813,1.023193359,0.123291016,0.024428747,0.003045933,0.033993418
-0.002807617,1.015625,0.123901367,0.052274077,0.005843789,0.018938288
-0.000854492,1.01965332,0.122680664,0.060534414,0.022630925,0.011077645
-0.005737305,1.015014648,0.124633789,0.077055087,0.06180091,-0.000247011
-0.009887695,1.018920898,0.121337891,0.073857538,0.068595703,0.000152683
-0.009521484,1.009399414,0.12878418,0.066663051,0.038352211,-0.00557626
-0.008544922,1.005493164,0.138183594,0.074923388,0.013304738,-0.012770747
-0.002685547,0.998046875,0.121948242,0.083583418,-0.009744266,-0.017966766
-0.001220703,1.00402832,0.122558594,0.074390463,-0.020003072,-0.015435372
-0.005249023,1.018798828,0.120727539,0.071592607,-0.007346104,-0.009173504
-0.00390625,1.012573242,0.12109375,0.056404245,0.029026025,0.000419145
-0.001098633,1.000976563,0.131958008,0.05587132,0.042615611,-0.008640579
0.001220703,1.004272461,0.129516602,0.052274077,0.035687587,-0.017700303
0.000610352,1.002197266,0.127441406,0.038418028,0.012105657,-0.024361865
0.00012207,1.002319336,0.132202148,0.039350646,0.007575795,-0.022363397
