AccelX,AccelY,AccelZ,GyroX,GyroY,GyroZ
1.038696289,0.009033203,0.138549805,0.006728711,0.138495207,-0.11633672
1.023193359,0.011962891,0.166625977,-0.008193188,0.07334513,-0.110874239
1.018066406,0.008666992,0.131103516,0.004330548,0.089599342,-0.133390319
1.024291992,0.017700195,0.135009766,0.021384147,0.103721853,-0.141650656
1.024658203,0.025390625,0.150146484,0.039903289,0.057757075,-0.125129982
1.031982422,0.01159668,0.14453125,0.032175878,0.001000567,-0.110074852
1.042236328,0.01550293,0.127075195,0.02711309,-0.027111225,-0.089557241
1.051025391,0.006347656,0.110717773,0.040969139,0.005930123,-0.087292309
1.052001953,-0.004882813,0.113769531,0.06148675,0.045899495,-0.075967654
1.05859375,-0.012817383,0.127685547,0.058688894,0.079873461,-0.069572554
1.048461914,-0.015991211,0.098510742,0.048296858,0.170470705,-0.073969185
1.035766602,-0.00012207,0.095458984,0.053093182,0.213104702,-0.087558772
1.002197266,0.022460938,0.103759766,0.058422432,0.251475299,-0.107276996
0.987548828,0.038330078,0.115600586,0.052560257,0.2365534,-0.106744071
0.986694336,0.045410156,0.130859375,0.03137649,0.208441608,-0.083295372
0.986572266,0.03918457,0.137695313,0.026979859,0.18819046,-0.063843611
0.97644043,0.034667969,0.153564453,0.029644484,0.119176677,-0.023341314
0.984619141,0.0390625,0.144042969,0.027646015,0.086002098,-0.011483734
0.988647461,0.038818359,0.136962891,0.029644484,0.052294594,0.008101259
1.024902344,0.039428711,0.14074707,0.037638358,0.064018943,0.019425914
1.039428711,0.041992188,0.153564453,0.053492876,0.072678974,0.064458074
1.036865234,0.035522461,0.159301758,0.056823657,0.063086325,0.092170172
1.032470703,0.030151367,0.163818359,0.061087057,0.03577392,0.124811826
1.02331543,0.009399414,0.162841797,0.046698083,0.020185865,0.113753633
1.031616211,0.005249023,0.151733398,0.043633764,0.058023538,0.095900646
1.041625977,0.019897461,0.159423828,0.04962917,0.120375758,0.061660218
1.039916992,0.033325195,0.161987305,0.04643162,0.112515115,0.051534643
1.029296875,0.030517578,0.161376953,0.028978328,0.090665192,0.038744444
1.019775391,0.022827148,0.145751953,0.018053366,0.090798423,0.027153326
1.01940918,0.016235352,0.140625,0.026180472,0.104654472,-0.006021253
1.012939453,0.013183594,0.15625,0.043900227,0.10985049,-0.023874239
1.015625,0.014648438,0.16809082,0.066682769,0.100790766,-0.043592463
1.015014648,0.029418945,0.181884766,0.068814469,0.087867335,-0.0390626
1.014892578,0.035766602,0.188110352,0.054825188,0.026314502,-0.016812983
1.014038086,0.030273438,0.173950195,0.047897164,0.009660597,-0.010551115
1.013427734,0.02355957,0.167602539,0.049362708,0.011126141,-0.006021253
1.023925781,0.031494141,0.163330078,0.044699614,-0.01472072,-0.013082508
1.029541016,0.02331543,0.154663086,0.037638358,-0.013521639,-0.017745602
1.052856445,0.013427734,0.142578125,0.024048772,0.02817974,-0.036264744
1.056274414,0.014526367,0.138549805,0.024981391,0.07121343,-0.039728757
1.049316406,0.017456055,0.149536133,0.03137649,0.095328285,-0.020276995
1.05078125,0.021118164,0.163208008,0.025647547,0.092796891,-0.007486796
1.034545898,0.025512695,0.174072266,0.023515847,0.10119046,0.011565271
1.031494141,0.035644531,0.18371582,0.023649078,0.067083262,0.016494827
1.01574707,0.030151367,0.169677734,0.023915541,0.026847427,0.010899115
1.008300781,0.034545898,0.163818359,0.033374959,0.051228744,0.004370784
1.01940918,0.026733398,0.180908203,0.040302983,0.050829051,0.011698502
1.021728516,0.021484375,0.193237305,0.040702677,0.01965294,0.018360064
1.024658203,0.005371094,0.190917969,0.026313703,-0.012455789,0.005303403
1.028198242,-0.000610352,0.17590332,0.024714928,-0.001264364,-0.009751727
1.026489258,0.009643555,0.151367188,0.053093182,0.037239464,-0.02933672
1.026733398,0.019287109,0.156616211,0.070280012,0.048697351,-0.031068726
1.020141602,0.026977539,0.177124023,0.072544943,0.006329816,-0.033866582
1.025512695,0.030883789,0.19152832,0.060953826,-0.033239862,-0.041860456
1.033325195,0.039306641,0.178833008,0.034707271,-0.08559974,-0.061711911
1.044555664,0.025756836,0.160888672,0.031110028,-0.065881516,-0.065975311
1.044311523,0.028442383,0.153320313,0.039636827,-0.020582894,-0.053185112
1.034912109,0.025024414,0.161499023,0.045099308,-0.004062221,-0.045590931
1.025390625,0.020019531,0.173706055,0.037105433,-0.012455789,-0.041593994
1.017211914,0.02355957,0.171020508,0.029378021,-0.035238331,-0.049188175
1.029174805,0.020629883,0.151733398,0.024048772,-0.038169418,-0.049188175
1.028198242,0.013671875,0.143432617,0.030443871,-0.00512807,-0.042393381
1.025024414,0.036499023,0.146240234,0.038171283,0.004064885,-0.034799201
1.017944336,0.040649414,0.156860352,0.039103902,-0.011123476,-0.025206551
1.010620117,0.042480469,0.157348633,0.032842034,-0.007126539,-0.027338251
1.00390625,0.04296875,0.149780273,0.029511253,-0.003262833,-0.033733351
1.004394531,0.036376953,0.152587891,0.019385678,-0.001530827,-0.034932432
1.01550293,0.033325195,0.143554688,0.006062554,0.011792297,-0.0390626
1.030395508,0.045654297,0.130859375,0.008327485,0.072012818,-0.035332126
1.030273438,0.060180664,0.136108398,0.018186597,0.082538086,-0.02400747
1.024536133,0.054931641,0.16809082,6.71485E-05,0.032976064,-0.003489859
1.016723633,0.037109375,0.169555664,-0.024580631,0.001000567,0.024888395
1.028442383,0.036621094,0.179931641,-0.035638824,-0.015253645,0.038877675
1.027954102,0.023071289,0.161987305,-0.032974199,0.01099291,0.071386098
1.03112793,0.026855469,0.148071289,-0.022448931,0.040703476,0.078447354
1.031982422,0.032470703,0.154418945,-0.022715394,0.050695819,0.070719942
1.034912109,0.028198242,0.157714844,-0.034040049,0.04749827,0.05659743
1.034057617,0.020751953,0.14465332,-0.034972668,0.072812205,0.054332499
1.031860352,0.001220703,0.146728516,-0.01698645,0.070547274,0.082177829
1.029296875,0.008666992,0.13684082,0.049096245,-0.000997902,0.159185486
1.022338867,0.015625,0.153564453,0.083603136,0.017654472,0.188363127
1.026000977,0.022827148,0.194335938,0.04856332,0.04643242,0.17570616
1.040161133,0.032958984,0.229003906,-0.080670983,0.159412512,0.137602025
1.024414063,0.041992188,0.205688477,-0.145954291,0.14529,0.116951182
1.014282227,0.028198242,0.189208984,-0.231089054,0.094528898,0.058329437
1.021362305,-0.003295898,0.176391602,-0.256935915,0.093596279,0.022490233
1.018310547,-0.014648438,0.183227539,-0.282516313,0.064418637,-0.033333657
1.012084961,-0.018310547,0.15625,-0.284248319,0.042302251,-0.05624943
1.014648438,-0.025146484,0.141967773,-0.269193189,0.050162894,-0.086492922
1.014038086,-0.03527832,0.137695313,-0.221363173,0.083737167,-0.087825234
1.01184082,0.000610352,0.137695313,-0.175798089,0.07334513,-0.078365816
1.004760742,0.013183594,0.136474609,-0.080937446,-0.056422098,-0.056116199
1.012329102,0.022583008,0.12878418,-0.016853219,-0.125036187,-0.041327531
1.022949219,0.010864258,0.125244141,-6.60827E-05,-0.10704997,-0.035065663
1.033935547,0.017944336,0.135253906,0.042301452,-0.057354717,-0.01001819
1.036621094,0.024658203,0.136474609,0.055491345,-0.060419035,0.004104322
1.042480469,-0.000610352,0.141723633,0.077874193,0.000867335,0.037678594
1.029174805,-0.007446289,0.176391602,0.093329017,0.00246611,0.063658686
1.034545898,0.030151367,0.185668945,0.145955357,-0.117308775,0.120681657
1.033691406,0.041015625,0.193969727,0.169537287,-0.141023936,0.134537706
1.040649414,0.045043945,0.195678711,0.168604668,-0.072276616,0.13600325
1.046875,0.047607422,0.202148438,0.146488282,-0.038968806,0.135337094
1.042358398,0.047363281,0.201904297,0.026979859,-0.011789632,0.116817951
0.742797852,-0.582763672,-0.450561523,-0.025779712,0.033642221,0.094301871
0.169799805,-0.260986328,-1.679199219,1.632149846,-1.541017812,-0.104745602
1.182617188,-0.044555664,-0.516723633,2.282185069,-0.193916738,-0.361615434
1.370605469,-0.118774414,1.064331055,1.163442342,0.213504395,-0.250234117
1.30871582,0.113037109,0.842407227,0.476235602,0.062153706,-0.048921712
1.161132813,0.228393555,0.10144043,-0.252006359,0.48995922,0.096167109
1.080932617,0.194335938,0.172241211,-0.466508656,0.685542681,0.128808763
1.093139648,0.151733398,0.418945313,-0.922692424,0.632116953,0.270167109
1.009643555,0.102416992,0.271118164,-1.090697018,0.544983722,0.329055317
0.959960938,0.075927734,0.092773438,-1.149718458,0.502616188,0.312667875
0.903686523,0.015136719,0.051147461,-1.092562256,0.483430889,0.251781198
0.903198242,-0.008300781,0.097045898,-0.943609729,0.301703477,0.105226833
0.903930664,-0.041748047,0.058105469,-0.832361643,0.224562588,0.041941994
0.911254883,-0.057006836,0.014526367,-0.558438212,0.095994441,-0.087825234
0.945678711,-0.088012695,0.027709961,-0.24894204,0.044833645,-0.152175924
0.955322266,-0.108764648,0.063354492,-0.083468839,-0.013521639,-0.144981437
0.969116211,-0.102416992,0.089111328,0.232955357,-0.161275084,-0.094753259
0.953857422,-0.111083984,0.072265625,0.262399461,-0.046829449,-0.071837486
1.046386719,0.050170898,0.190185547,0.6864745,0.461847428,-0.400252494
0.828735352,-0.076538086,0.041015625,0.650368834,-0.292108163,-0.395456169
1.072143555,0.081542969,0.244384766,0.624388742,-0.690869266,-0.258894147
1.158813477,0.034423828,0.359619141,0.542051835,-0.256801884,-0.191079446
1.119262695,0.094848633,0.366943359,0.141025801,-0.133030061,0.000507078
1.077392578,0.102416992,0.258789063,-0.044032392,-0.186722251,0.077381504
1.063110352,0.033447266,0.190429688,-0.261732239,0.047631501,0.078847048
1.062866211,-0.0078125,0.190551758,-0.322885379,0.128369633,0.050602025
1.0234375,-0.045410156,0.162109375,-0.284648013,0.129035789,0.026087476
0.990356445,-0.024291992,-0.01965332,-0.246677109,0.072945437,0.025554551
1.021850586,0.046875,0.07409668,-0.113712331,-0.025778913,0.028219176
1.05065918,0.048706055,0.148925781,-0.095459651,-0.008592083,0.0394106
1.053588867,0.054443359,0.147949219,-0.127834842,0.061354319,0.078314123
1.028442383,0.030151367,0.151489258,-0.149151841,0.056824456,0.083909835
1.002929688,-0.053833008,0.14453125,-0.138226879,0.044167489,0.032749038
1.021240234,-0.071166992,0.12109375,-0.08573377,0.044966876,0.01249789
1.049926758,-0.04309082,0.102050781,0.044433152,0.003265498,-0.000425541
1.057373047,0.030639648,0.160522461,0.102655204,-0.037902956,0.01462959
1.046875,0.031616211,0.158691406,0.100390273,-0.041366968,0.01569544
1.028686523,-0.014770508,0.185424805,0.069747087,-0.094792695,-0.015880364
1.053100586,-0.038452148,0.17199707,0.044433152,-0.052025467,-0.082362754
1.079711914,-0.054321289,0.122802734,0.08400283,0.042435482,-0.094486796
1.088989258,-0.002319336,0.19152832,0.07214525,0.018320628,-0.074235648
1.064575195,0.039794922,0.220336914,0.028978328,0.005930123,-0.065309155
1.050048828,0.049316406,0.172363281,-0.015121213,0.04003732,-0.083828297
1.029296875,0.047363281,0.180297852,-0.043099773,-0.070144916,-0.140984499
1.05847168,0.023681641,0.110229492,-0.064683234,-0.040967274,-0.206267807
1.08203125,0.02331543,0.10144043,-0.06854694,0.091731041,-0.266754791
1.091918945,0.034057617,0.122436523,-0.028977262,0.136896432,-0.197474545
1.073486328,0.031005859,0.122558594,-0.005795026,0.1538168,-0.161768573
1.050537109,0.019897461,0.13684082,0.025247853,0.233222619,-0.110741008
1.032958984,0.01171875,0.14465332,0.032309109,0.264665192,-0.089424009
1.021972656,-0.003173828,0.201416016,0.024048772,0.310363507,-0.047056475
1.033325195,0.006225586,0.224365234,0.017253979,0.339008224,0.001572928
1.010253906,-0.000732422,0.205688477,0.038704208,0.352198117,0.092436634
1.026367188,-0.002685547,0.153808594,0.092929323,0.321821394,0.149592836
1.03918457,0.000244141,0.138427734,0.118509721,0.380842834,0.164647967
1.03894043,-0.014770508,0.149536133,0.166339737,0.539521241,0.180768947
1.013793945,-0.008300781,0.207763672,0.183926261,0.566966877,0.185964965
1.006103516,0.015869141,0.19152832,0.200580166,0.622923998,0.164781198
1.006958008,0.022949219,0.196044922,0.196449997,0.680213431,0.14026665
1.032348633,0.044799805,0.22668457,0.181128405,0.747495208,0.108424383
1.001342773,0.061523438,0.261352539,0.151284607,0.824502865,0.154522392
0.947143555,0.033081055,0.267333984,0.139693489,0.724179741,0.174507078
0.959350586,0.006347656,0.279174805,0.14302427,0.715386479,0.18223449
0.975830078,0.002075195,0.297485352,0.131832846,0.838625376,0.170510141
0.97644043,-0.005615234,0.282958984,0.104520441,0.956535024,0.135337094
0.9765625,-0.02331543,0.303833008,0.101722585,0.87766213,0.12094812
0.973999023,-0.007568359,0.337890625,0.068681237,0.558839771,0.112154858
0.978027344,-0.011352539,0.313598633,0.053626107,0.435334411,0.097765884
1.021972656,-0.004394531,0.325805664,0.030044178,0.462247122,0.077514735
1.008666992,-0.025024414,0.337280273,0.018985985,0.529795361,0.05766328
1.008056641,-0.040283203,0.343505859,0.013656735,0.587484488,0.035946588
1.007446289,-0.040893555,0.351196289,0.018186597,0.56736657,0.033681657
1.020141602,-0.032348633,0.352294922,0.041235602,0.532459985,0.011964965
1.025390625,-0.014648438,0.357055664,0.04962917,0.563769327,-0.008819109
1.008666992,-0.020629883,0.381103516,0.032708802,0.600141456,-0.051053412
0.969848633,-0.016479492,0.40625,0.018852753,0.501550338,-0.052918649
0.978881836,-0.003540039,0.411987305,-0.004729176,0.290378821,-0.040261682
0.981079102,-0.013061523,0.398071289,0.00126623,0.28811389,-0.022142233
0.986328125,-0.018798828,0.419799805,0.007394867,0.410286938,0.007701565
0.998168945,-0.020751953,0.412841797,0.008460717,0.460515115,0.015428977
1.005126953,-0.020996094,0.393310547,0.012324423,0.449856616,0.006902178
1.018554688,-0.020141602,0.420043945,0.008061023,0.456784641,-0.016946214
0.986083984,0.000732422,0.445800781,0.005129936,0.495688163,-0.029203489
0.96862793,-0.008178711,0.469238281,-0.0137889,0.483697351,-0.045724162
0.968261719,-0.006835938,0.456054688,-0.018585225,0.484230276,-0.051319874
0.978393555,-0.005737305,0.479736328,-0.015654138,0.56083824,-0.053185112
0.957763672,-0.024047852,0.485229492,-0.017119681,0.589749419,-0.049188175
0.943847656,-0.016723633,0.491210938,0.003930855,0.586285407,-0.041993688
0.960205078,-0.012451172,0.489746094,-0.002064551,0.574960751,-0.040261682
0.966064453,-0.03137207,0.49230957,-0.002464245,0.538988316,-0.027471482
0.962768555,-0.015869141,0.509521484,0.013656735,0.517271624,-0.026672095
0.949951172,0.005859375,0.539672852,0.006861942,0.482365039,-0.033866582
0.941040039,-0.011474609,0.540039063,0.002065617,0.447458454,-0.037064132
0.936523438,-0.033081055,0.546264648,0.027246322,0.440397198,-0.040394913
0.953613281,-0.043212891,0.545654297,0.048829783,0.5039485,-0.031601651
0.951416016,-0.055541992,0.540283203,0.046698083,0.612265499,-0.020143764
0.914550781,-0.018920898,0.572143555,0.012590885,0.523933186,-0.000425541
0.916259766,-0.002685547,0.580566406,-0.002597476,0.463712665,0.012364659
0.880981445,-0.008544922,0.56628418,-0.012589819,0.353663661,0.056730662
0.896118164,-0.010742188,0.538085938,-0.01698645,0.358726448,0.071519329
0.9140625,-0.006103516,0.564453125,-0.012456588,0.481832114,0.050468793
0.915039063,0.019775391,0.596923828,-0.003929789,0.570963814,0.032216113
0.901611328,0.011352539,0.584594727,-0.011124276,0.597610062,0.011565271
0.887451172,-0.013061523,0.585571289,-0.02124985,0.499285406,0.013963433
0.86706543,-0.030029297,0.596435547,-0.042433617,0.249610062,0.030883801
0.897338867,-0.029541016,0.608154297,-0.045364705,0.214703477,0.041275838
0.917724609,-0.035888672,0.635620117,0.016454591,0.312628438,0.042075225
0.895019531,-0.041381836,0.657470703,0.090531161,0.470907152,0.047670937
0.920043945,-0.012329102,0.634033203,0.122906352,0.531660598,0.042874613
0.919067383,0.005004883,0.648071289,0.134097777,0.674218025,-0.016679752
0.916137695,-0.005126953,0.637573242,0.119975265,0.742165958,-0.055982968
0.886352539,-0.022705078,0.657470703,0.082004362,0.663825989,-0.107010533
0.849121094,-0.003540039,0.658935547,0.0710794,0.525798423,-0.113672095
0.822753906,-0.003662109,0.672729492,0.029511253,0.289979128,-0.107676689
0.820800781,-0.01550293,0.681640625,0.003531161,0.235354319,-0.091955403
0.83984375,-0.009643555,0.676757813,0.005662861,0.286648346,-0.088891084
0.835083008,0.016113281,0.684570313,-0.008059957,0.334078668,-0.076767041
0.799072266,-0.000366211,0.684936523,-0.029909881,0.237486019,-0.059580211
0.824462891,0.002319336,0.684570313,-0.070545409,-0.03403925,-0.042526613
0.867675781,-0.017211914,0.681274414,-0.092528564,-0.06414951,-0.04865525
0.872802734,-0.032592773,0.683105469,-0.079605133,0.085069479,-0.075301498
0.848388672,-0.011962891,0.705444336,-0.055223816,0.155815268,-0.090489859
0.833251953,-0.006103516,0.71875,-0.0180523,0.228426294,-0.090223397
0.862304688,-0.016479492,0.694702148,0.004996704,0.28811389,-0.071304561
0.922485352,-0.046386719,0.672607422,-0.003929789,0.404824457,-0.120466888
0.880493164,-0.012451172,0.694091797,0.025780778,0.461847428,-0.161768573
0.865234375,0.015625,0.685058594,0.036172815,0.453853553,-0.177223397
0.829589844,0.003540039,0.713989258,0.039903289,0.306233339,-0.175491391
0.808349609,-0.006591797,0.747680664,0.029378021,0.213237933,-0.164033504
0.853515625,-0.013549805,0.719848633,0.014989047,0.195917872,-0.14857868
0.875732422,-0.005859375,0.717163086,0.01312381,0.261467642,-0.155373473
0.866821289,0.001220703,0.745239258,0.011258573,0.410686631,-0.168430135
0.865356445,0.002197266,0.752319336,0.008727179,0.480100108,-0.17002891
0.850219727,0.012817383,0.782714844,0.037638358,0.704594748,-0.152042692
0.850341797,0.007080078,0.788818359,0.049762401,0.817708072,-0.151642999
0.825317383,0.013671875,0.728637695,0.022050303,0.818374228,-0.153508236
0.783569336,0.017333984,0.754272461,-0.004729176,0.668888776,-0.138319875
0.762084961,0.049804688,0.769165039,-0.010458119,0.621591685,-0.129926306
0.740722656,0.059326172,0.802490234,0.016721054,0.661161364,-0.098483734
0.638305664,0.028808594,0.839477539,0.120108496,0.731507459,0.029418257
0.749511719,0.00012207,0.772949219,0.079206505,0.625721854,0.035147201
0.739135742,-0.004882813,0.760742188,0.026979859,0.319023538,0.048470325
0.745849609,0.01574707,0.857177734,0.001132998,0.279054166,0.06299253
0.743408203,0.013305664,0.810180664,0.014722585,0.358193523,0.080978747
0.768310547,-0.017700195,0.805053711,0.009526567,0.40948755,0.089505547
0.757202148,-0.026367188,0.784545898,-0.073210034,0.236286938,0.087240616
0.769165039,0.005371094,0.848632813,-0.085600539,0.238951562,0.084709222
0.770751953,-0.001342773,0.852294922,-0.093061489,0.391901027,0.053666343
0.764160156,0.0234375,0.83605957,-0.082269758,0.468642221,0.040343219
0.75012207,0.024291992,0.837768555,-0.052292729,0.525265498,-0.011350502
0.719726563,-0.014526367,0.844238281,-0.0223157,0.418280812,-0.023741008
0.729736328,-0.00402832,0.850830078,0.002865005,0.401360445,-0.033999813
0.756225586,-0.013427734,0.835693359,0.014855816,0.432136861,-0.082096291
0.73449707,-0.01574707,0.861328125,0.01951891,0.400561057,-0.095552646
0.680664063,-0.016967773,0.908935547,0.038304515,0.277188928,-0.085959997
0.657104492,-0.005737305,0.905517578,0.052959951,0.245879587,-0.061845143
0.672119141,-0.011230469,0.893310547,0.051361176,0.352464579,-0.015747133
0.749267578,-0.033447266,0.85925293,0.014322891,0.610933186,-0.014148358
0.719604492,-0.022705078,0.872314453,0.002998236,0.743498271,-0.023874239
0.700439453,-0.002197266,0.910888672,-0.007926726,0.957734105,-0.034266276
0.626098633,0.007324219,0.944091797,-0.008059957,1.080839772,-0.020676689
0.614013672,-0.016479492,0.935302734,-0.005528564,1.124806081,-0.009085571
0.618530273,-0.012817383,0.930664063,-0.028444337,1.123740231,-0.019077914
0.583740234,0.004516602,0.990966797,-0.010324888,0.932553401,-0.01974407
0.534057617,0.014526367,0.950317383,-0.01485475,0.805184335,0.015295746
0.512207031,0.039916992,0.91003418,-0.049494873,0.538455391,0.050335562
0.551757813,0.024169922,0.935546875,-0.090530095,0.414950031,0.046338625
0.572143555,0.007568359,0.962524414,-0.136628104,0.312495207,0.025154858
0.52355957,0.014404297,0.972290039,-0.143556129,0.394965345,0.068188548
0.504394531,0.004760742,0.976074219,-0.144621979,0.460914809,0.105759758
0.604370117,-0.041381836,0.996582031,-0.144488748,0.623456923,0.094035409
0.565185547,0.006713867,0.983886719,-0.108916006,0.839291533,0.069920554
0.490722656,-0.000488281,0.998779297,-0.057488747,0.847152176,0.105093602
0.538452148,-0.003295898,1.01159668,-0.09532642,0.548580966,0.071652561
0.516601563,-0.025512695,0.963256836,-0.139692423,0.317025069,0.022889927
0.443481445,-0.036865234,1.033935547,-0.150750616,0.265997504,0.039810294
0.446166992,-0.031494141,1.013305664,-0.124637293,0.214703477,0.106026221
0.542724609,-0.064575195,1.027954102,-0.108516313,0.060022006,0.078847048
0.537963867,-0.056884766,1.032836914,-0.105851688,0.022317565,0.047271244
0.515136719,-0.065185547,1.026245117,-0.071877721,0.077475299,0.003304934
0.559326172,-0.03125,1.041870117,-0.070278946,0.15275095,-0.030002876
0.552368164,0.008056641,1.030395508,-0.020583694,0.385505927,-0.11740257
0.513549805,0.002929688,1.026733398,0.007927792,0.540853554,-0.142450043
0.508544922,-0.033935547,1.05847168,0.074410181,0.912568715,-0.158571023
0.522094727,-0.04296875,1.022583008,0.076541881,1.13653043,-0.176690472
0.505859375,-0.020019531,0.990356445,0.080139124,1.494522774,-0.213995219
0.431762695,-0.014648438,1.066040039,0.074010487,1.544884183,-0.240774699
0.411499023,-0.038085938,1.076416016,0.038038052,1.500118486,-0.249035036
0.368041992,-0.052246094,1.015991211,0.013390273,1.479334412,-0.201737945
0.302490234,-0.040649414,0.990844727,-0.085334077,1.317858149,-0.088891084
0.240478516,-0.030761719,1.014282227,-0.127435149,1.13546458,-0.041727225
0.247192383,0.000488281,1.11328125,-0.140225348,0.670487551,0.034347813
0.303955078,-0.023681641,1.165649414,-0.097857813,0.424409449,0.040343219
0.288085938,-0.045654297,1.037231445,-0.09106302,0.211239464,0.072318717
0.256835938,-0.033203125,0.988037109,-0.102254444,0.174600873,0.105493296
0.275878906,-0.072143555,1.116577148,-0.053225348,0.114513584,0.168644904
0.311767578,-0.06652832,1.056518555,0.008460717,0.186458454,0.169177829
0.323242188,-0.015258789,1.104492188,0.021783841,0.254939311,0.14786083
0.318359375,-0.002929688,1.11706543,0.053093182,0.417481425,0.076448885
0.294799805,-0.028442383,1.152709961,0.091863473,0.561637627,0.045272775
0.292724609,-0.037719727,1.176513672,0.159012019,0.856478363,-0.006420946
0.264038086,-0.031494141,1.102661133,0.171269293,0.954136862,-0.024673626
0.242553711,-0.041748047,1.107543945,0.144756276,0.84328847,-0.043326
0.220703125,-0.076293945,1.083984375,0.095460717,0.656631502,-0.05624943
0.230957031,-0.072265625,1.099365234,0.031243259,0.318224151,-0.050120793
0.205200195,-0.056884766,1.145629883,0.046831314,0.299038852,0.003038472
0.211181641,-0.0625,1.157958984,0.058289201,0.396031195,0.033148732
0.25390625,-0.066772461,1.124267578,0.087466842,0.637579434,0.032482576
0.232543945,-0.059082031,1.115600586,0.084535755,0.684876525,0.010765884
0.192382813,-0.039794922,1.120605469,0.023116153,0.633449266,-0.033067195
0.141601563,-0.037963867,1.13684082,-0.032441274,0.561237933,-0.049454637
0.109619141,-0.042358398,1.08581543,-0.098257507,0.576159832,-0.042526613
0.080932617,-0.035400391,1.113891602,-0.151550003,0.560438546,-0.059580211
0.069580078,-0.037597656,1.108764648,-0.233620447,0.472505927,-0.058914055
0.098632813,-0.044555664,1.128173828,-0.253471902,0.42774023,-0.05944698
0.12109375,-0.044433594,1.153076172,-0.259467308,0.308764732,-0.103146827
0.103271484,-0.067504883,1.169555664,-0.257335608,0.258936248,-0.121266276
0.095947266,-0.056152344,1.192260742,-0.198047706,0.355928592,-0.112606245
0.111450195,-0.055419922,1.139892578,-0.112246787,0.567633033,-0.079431666
0.123291016,-0.087646484,1.125976563,-0.095193188,0.547115422,-0.069306092
0.111938477,-0.110473633,1.080810547,-0.099190126,0.420412512,-0.043858925
0.120483398,-0.080932617,1.11340332,-0.110248319,0.422277749,-0.017612371
0.126220703,-0.059570313,1.194091797,-0.042966542,0.618127673,0.029418257
0.15222168,-0.067016602,1.218139648,0.02058476,0.756821395,0.032615807
0.192749023,-0.106445313,1.184814453,0.12263989,1.081905622,0.007035409
0.144775391,-0.113769531,1.153198242,0.137961483,1.250576372,-0.00468894
0.036621094,-0.083984375,1.144042969,0.12263989,1.456951564,-0.008685878
0.026489258,-0.071777344,1.167236328,0.110782309,1.385139925,-0.019477608
-0.033813477,-0.069213867,1.153320313,0.097592417,0.950939312,-0.052785418
-0.058227539,-0.096923828,1.098999023,0.082137593,0.81864069,-0.052652187
-0.044311523,-0.084472656,1.122558594,0.087999767,0.814377291,-0.045191237
-0.059082031,-0.086669922,1.121337891,0.081204974,0.87020118,-0.057448512
-0.064331055,-0.092895508,1.085693359,0.06361845,0.928689695,-0.066774698
-0.050537109,-0.101318359,1.076049805,0.014989047,0.924426295,-0.099416352
-0.041015625,-0.093505859,1.088134766,-0.04483178,0.893116954,-0.168030441
-0.062866211,-0.08215332,1.094238281,-0.062418303,0.91523334,-0.195742539
-0.198364258,0.000854492,1.074584961,-0.055090585,0.914700415,-0.195209614
-0.228393555,0.005249023,1.068847656,-0.006860876,0.802253248,-0.122198895
-0.151611328,-0.067260742,1.044067383,0.016987516,0.669688163,-0.130992156
-0.142578125,-0.067871094,1.067871094,0.022583228,0.653966877,-0.151642999
-0.169677734,-0.055053711,1.058959961,0.01312381,0.740700414,-0.191612371
-0.202514648,-0.05456543,1.064331055,0.00126623,0.777738699,-0.195209614
-0.223144531,-0.037353516,1.084960938,-0.030842499,0.738968408,-0.211197363
-0.239501953,-0.048828125,1.080078125,-0.035638824,0.672086326,-0.210397976
-0.291259766,-0.090820313,1.06640625,-0.058021672,0.618527367,-0.201871176
-0.300292969,-0.111938477,1.064941406,-0.143556129,0.570297658,-0.150310686
-0.299194336,-0.094482422,1.051147461,-0.180860876,0.506346662,-0.107543458
-0.331054688,-0.068603516,1.059204102,-0.237217691,0.24188265,-0.038396444
-0.289550781,-0.075683594,1.095581055,-0.221896098,0.100923997,-0.00255724
-0.259399414,-0.086425781,1.072998047,-0.167937446,0.039770858,0.05872913
-0.221313477,-0.083007813,1.106933594,-0.097724582,0.220299189,0.078980279
-0.197998047,-0.072998047,1.112670898,-0.050693954,0.341939311,0.071919023
-0.234008789,-0.067260742,1.081054688,0.040436214,0.627054166,0.076182423
-0.221557617,-0.0703125,1.08581543,0.081338205,0.754956157,0.071519329
-0.266723633,-0.092163086,1.136230469,0.156880319,0.890052635,0.049269712
-0.290161133,-0.087402344,1.134521484,0.165940043,0.842755545,0.0415423
-0.360351563,-0.099365234,1.072631836,0.179796092,0.756022007,0.060327905
-0.373168945,-0.098632813,1.076416016,0.16340865,0.72631144,0.089638778
-0.354248047,-0.085693359,1.065429688,0.121973734,0.631850491,0.065523924
-0.415405273,-0.059448242,1.047119141,0.019119216,0.368718791,0.037811825
-0.436767578,-0.076660156,1.038696289,-0.09639227,0.087201179,0.053133418
-0.349609375,-0.107055664,1.054077148,-0.134363173,0.011259372,0.072718411
-0.340332031,-0.114624023,1.08203125,-0.176863939,0.090265498,0.066456542
-0.33203125,-0.076416016,1.091796875,-0.175664858,0.229358913,0.049269712
-0.330322266,-0.085449219,1.084594727,-0.137960417,0.470773921,0.007701565
-0.373535156,-0.091552734,1.099243164,-0.119041581,0.526597811,0.000107384
-0.37097168,-0.120483398,1.089111328,-0.072410646,0.515672849,0.019692377
-0.343261719,-0.121704102,1.086425781,-0.046563786,0.511675912,0.023689314
-0.380004883,-0.095092773,1.085693359,0.033374959,0.600008224,0.024089008
-0.398803711,-0.105834961,1.055541992,0.069347394,0.697666724,0.035280432
-0.387329102,-0.115112305,1.047241211,0.125570977,0.951472237,0.053533112
-0.428466797,-0.064941406,1.016357422,0.192053366,1.036074075,0.071919023
-0.500244141,-0.070922852,0.997680664,0.184992111,0.894316035,0.082177829
-0.483032227,-0.0703125,0.977416992,0.153149844,0.805983722,0.067788855
-0.498168945,-0.095703125,0.905151367,0.076808343,0.644507459,0.063791917
-0.535644531,-0.090698242,0.950927734,0.010459185,0.33647683,0.084309528
-0.517333984,-0.119018555,0.97668457,-0.026445868,0.231890307,0.081644904
-0.50402832,-0.093261719,0.966308594,-0.07813959,0.302236402,0.091504015
-0.485717773,-0.048706055,0.977905273,-0.083735302,0.414150644,0.094701565
-0.483642578,-0.036376953,0.977661133,-0.074142652,0.471173615,0.083243679
-0.468261719,-0.101074219,0.956665039,-0.101188594,0.439597811,0.066856236
-0.460693359,-0.094116211,0.993408203,-0.15115031,0.299038852,0.004903709
-0.537475586,-0.119506836,0.963012695,-0.179395333,0.234954625,-2.58469E-05
-0.50769043,-0.094726563,0.968383789,-0.193384613,0.221631501,0.02861887
-0.526245117,-0.070922852,0.931152344,-0.155946634,0.396031195,0.082710754
-0.51574707,-0.054931641,0.940429688,-0.12756838,0.491824457,0.103361596
-0.495605469,-0.049072266,0.897949219,-0.112246787,0.581222619,0.115352408
-0.494750977,-0.106323242,0.8828125,-0.140758273,0.555242528,0.114686251
-0.494384766,-0.107299805,0.92565918,-0.181527032,0.337409449,0.114952714
-0.480102539,-0.088500977,0.968017578,-0.189254444,0.266796892,0.091237553
-0.487426758,-0.083374023,0.979125977,-0.150217691,0.43839873,0.022756695
-0.526245117,-0.095947266,0.93762207,-0.089464245,0.791061823,0.014229896
-0.547851563,-0.112426758,0.914306641,-0.055756741,0.932286938,0.023822545
-0.552612305,-0.127441406,0.888793945,-0.029510187,1.067916341,0.019159452
-0.599975586,-0.095825195,0.875610352,0.000866536,1.065118485,0.031416726
-0.633300781,-0.073364258,0.860839844,0.054425495,0.870600874,0.072851642
-0.669677734,-0.115234375,0.839477539,0.064417838,0.627853554,0.112954245
-0.678710938,-0.125732422,0.842041016,0.036838971,0.454786172,0.120415195
-0.700439453,-0.121582031,0.815429688,-0.053092116,0.203911746,0.122680126
-0.696899414,-0.103637695,0.823730469,-0.088131933,0.146089388,0.121880738
-0.663085938,-0.099731445,0.89074707,-0.103853219,0.102123078,0.109090539
-0.6640625,-0.122314453,0.861816406,-0.102787369,0.140760138,0.115352408
-0.639770508,-0.099487305,0.915771484,-0.065749084,0.239617719,0.092836328
-0.643920898,-0.084106445,0.937011719,-0.031908349,0.250809143,0.067522392
-0.655151367,-0.060668945,0.899780273,0.034041115,0.381908684,0.048203862
-0.629638672,-0.064697266,0.881469727,0.064950763,0.522334411,0.036479513
-0.563232422,-0.099487305,0.853271484,0.10758476,0.823570246,0.025821014
-0.610107422,-0.040893555,0.842407227,0.135163627,0.911236402,0.020491764
-0.66796875,-0.055908203,0.802856445,0.173001299,0.935084795,0.058995593
-0.682739258,-0.083129883,0.751464844,0.185791498,0.912435484,0.138801106
-0.689086914,-0.091674805,0.779785156,0.198714928,0.849950032,0.172908303
-0.730102539,-0.116088867,0.734375,0.206042647,0.847018944,0.243654092
-0.727416992,-0.111450195,0.721801758,0.159811406,0.964795361,0.237925149
-0.795776367,-0.064331055,0.706787109,0.091064086,0.968259373,0.17464031
-0.819580078,-0.042114258,0.689086914,0.0646843,0.934018945,0.166379973
-0.798339844,-0.05078125,0.694824219,0.01312381,0.816908684,0.170243679
-0.75769043,-0.073730469,0.703491211,-0.000732239,0.766414044,0.161050723
-0.777587891,-0.05090332,0.686523438,-0.020716925,0.737502865,0.165447354
-0.765014648,-0.049194336,0.673583984,-0.053092116,0.736570246,0.172775072
-0.817138672,-0.046875,0.671630859,-0.103053832,0.644773921,0.205416726
-0.810791016,-0.051513672,0.684448242,-0.127168686,0.549913278,0.214076757
-0.814331055,-0.057250977,0.714111328,-0.141024735,0.281852022,0.213543832
-0.805786133,-0.048095703,0.694580078,-0.135295792,0.194052634,0.212078288
-0.801269531,-0.049438477,0.651855469,-0.109981856,0.319156769,0.20368472
-0.801513672,-0.076293945,0.661132813,-0.094926726,0.443195054,0.20901397
-0.826416016,-0.07800293,0.676879883,-0.05775521,0.557240996,0.217540769
-0.903442383,-0.032592773,0.64074707,-0.052692423,0.553510521,0.213410601
-0.874633789,-0.012573242,0.651611328,-0.015254444,0.496754013,0.179303403
-0.860839844,-0.057739258,0.687255859,0.01525551,0.436933186,0.114020095
-0.828369141,-0.056152344,0.686767578,0.03244234,0.43520118,0.088439697
-0.792114258,-0.011108398,0.639404297,0.052560257,0.543384947,0.042341688
-0.785400391,0.011108398,0.645507813,0.061087057,0.618527367,0.026753633
-0.80480957,-0.004272461,0.634399414,0.067348925,0.782268562,0.004903709
-0.789306641,-0.018432617,0.643188477,0.06361845,0.857544213,-0.00682064
-0.81262207,-0.005859375,0.572875977,0.046564852,0.859276219,-0.003356628
-0.835327148,0.052246094,0.556030273,0.046698083,0.772675912,0.007568334
-0.899291992,0.020385742,0.503540039,0.015388741,0.508478362,0.043407538
-0.897094727,-0.03112793,0.512451172,-0.012456588,0.390435483,0.042741381
-0.903930664,-0.062133789,0.543334961,-0.053758273,0.231090919,0.043540769
-0.897094727,-0.068481445,0.540527344,-0.061485685,0.208175146,0.047271244
-0.899047852,-0.053833008,0.548583984,-0.065349391,0.250942374,0.06619008
-0.888793945,-0.044433594,0.543457031,-0.055756741,0.318623844,0.075782729
-0.842773438,-0.033325195,0.494995117,-0.055490279,0.510610062,0.097499421
-0.862182617,-0.000854492,0.460083008,-0.05562351,0.608401793,0.116285026
-0.894287109,0.003173828,0.472290039,-0.044565317,0.718584029,0.11028962
-0.910522461,-0.030151367,0.492675781,-0.032441274,0.712855085,0.098298809
-0.875366211,-0.026245117,0.448120117,0.004330548,0.716452329,0.080445822
-0.850463867,0.006103516,0.430664063,0.059088588,0.79932216,0.03288227
-0.831542969,0.025512695,0.421875,0.081604668,0.831430889,-0.082495985
-0.868530273,0.017944336,0.435668945,0.070679706,0.802786173,-0.127528144
-0.891601563,-0.022705078,0.395751953,0.029644484,0.713254779,-0.165499048
-0.900634766,-0.002075195,0.384521484,0.005263167,0.676616188,-0.158437792
-0.927368164,0.018066406,0.388305664,-0.013655669,0.534591685,-0.067041161
-0.958740234,0.024780273,0.393310547,-0.031641887,0.427207305,-0.030935495
-0.966064453,-0.041870117,0.42199707,-0.061885378,0.21403732,-2.58469E-05
-0.92980957,-0.077514648,0.40222168,-0.079605133,0.157280812,0.003837859
-0.911865234,-0.082885742,0.411865234,-0.113179406,0.160211899,-0.002290778
-0.900634766,-0.062011719,0.419677734,-0.102520907,0.207775452,-0.00255724
-0.934204102,-0.034545898,0.404174805,-0.07067864,0.414417106,-0.028803795
-0.944091797,-0.031738281,0.35559082,-0.064017078,0.547381884,-0.061978374
-0.940063477,-0.025512695,0.349365234,-0.080937446,0.754822926,-0.103280058
-0.93737793,-0.027832031,0.337768555,-0.091595945,0.796657536,-0.134056475
-0.962280273,-0.025146484,0.344238281,-0.09212887,0.721115422,-0.118068726
-0.984985352,-0.034301758,0.360229492,-0.088531626,0.526198117,-0.109142233
-0.96484375,-0.041748047,0.377807617,-0.076407584,0.440130736,-0.109408695
-0.96875,-0.043823242,0.370605469,-0.052825654,0.389636095,-0.110874239
-0.961425781,-0.032592773,0.322631836,-0.005395332,0.425475299,-0.057848205
-0.938720703,-0.056152344,0.331054688,0.057889507,0.478368102,0.059262055
-0.95715332,-0.078735352,0.321044922,0.090264698,0.518737168,0.112021626
-0.966674805,-0.056518555,0.351318359,0.123972202,0.525798423,0.140000187
-0.973754883,-0.035522461,0.250610352,0.136762401,0.501283875,0.140932806
-0.977783203,-0.021850586,0.251953125,0.126503596,0.436933186,0.13600325
-0.970703125,-0.039916992,0.250854492,0.116910947,0.423077137,0.122546895
-0.979980469,-0.009033203,0.228393555,0.094794561,0.431737168,0.069121167
-1.008056641,0.018920898,0.204711914,0.086667455,0.404691226,0.030617338
-1.020751953,0.024291992,0.209594727,0.059488282,0.184193522,-0.030136107
-0.995727539,0.006469727,0.225585938,0.037505127,0.03683977,-0.032134576
-0.950439453,-0.033203125,0.246459961,-0.009525501,-0.133696218,-0.00468894
-0.947143555,-0.03918457,0.231811523,-0.0159206,-0.099855483,0.00823449
-0.928466797,-0.053588867,0.259887695,0.002198848,0.027646815,0.042474919
-0.896972656,-0.103393555,0.281494141,0.009793029,0.09266366,0.0458057
-0.876708984,-0.085327148,0.287231445,0.055091651,0.235620781,0.044340156
-0.885253906,0.01159668,0.228515625,0.090264698,0.38470654,0.025687783
-0.870483398,0.065795898,0.222167969,0.127835908,0.536057229,0.018360064
-0.891479492,0.001708984,0.2265625,0.175532692,0.594945437,0.036879207
-0.921875,-0.013427734,0.220581055,0.204177409,0.595078668,0.054199268
-0.976074219,0.004760742,0.198608398,0.229757807,0.582688163,0.054332499
-0.95703125,-0.002929688,0.19152832,0.216834377,0.442129204,0.012897583
-0.932373047,-0.037475586,0.106323242,0.162476031,0.289579434,-0.026272401
-0.946411133,-0.002929688,0.109863281,0.139027333,0.236153706,-0.055316812
-0.966064453,-0.014160156,0.148071289,0.121707271,0.194319097,-0.072370411
-0.9765625,-0.042602539,0.14855957,0.09252963,0.146622313,-0.057981437
-0.994140625,-0.026977539,0.137817383,0.07427695,0.133032726,-0.053051881
-0.997192383,-0.016723633,0.123657227,0.044966077,0.060155237,-0.039595525
-0.994018555,-0.010375977,0.12109375,0.022849691,-0.003262833,-0.026672095
-0.997680664,-0.007080078,0.147094727,0.000866536,-0.151948898,0.014496358
-0.984008789,-0.019042969,0.208496094,0.004597011,-0.2069734,0.046605087
-0.974243164,-0.042480469,0.194946289,0.02604724,-0.142622711,0.070320248
-0.977661133,-0.045166016,0.165893555,0.032975265,-0.018451195,0.064990999
-0.995117188,-0.038085938,0.173217773,0.032042646,0.195651409,0.06832178
-1.006713867,-0.031982422,0.200073242,0.023515847,0.211772389,0.077115041
-0.986938477,-0.005493164,0.186157227,0.003264698,0.1495534,0.086041535
-0.972290039,-0.001953125,0.17175293,0.006462248,0.174334411,0.07698181
-0.965942383,-0.014404297,0.167724609,0.00886041,0.226294594,0.05979498
-0.988891602,-0.024169922,0.170043945,-0.014055363,0.265064886,0.037145669
-0.986816406,-0.021972656,0.16015625,-0.018451994,0.245746356,0.050468793
-0.969116211,-0.010620117,0.150268555,-0.019384613,0.203778515,0.071652561
-0.974243164,-0.003662109,0.138916016,-0.015254444,0.201513584,0.064591305
-0.971557617,0.00378418,0.141845703,-0.007527032,0.214969939,0.043940463
-0.974853516,-0.002929688,0.162475586,-0.005661795,0.218966876,0.021957308
-0.98059082,0.012329102,0.13659668,0.016721054,0.262267029,-0.000692003
-0.980712891,0.032348633,0.116210938,0.031509721,0.281585559,0.002372315
-0.98059082,0.011352539,0.105224609,0.030177409,0.270127673,-2.58469E-05
-0.975585938,-0.030151367,0.133300781,0.022050303,0.221631501,-0.017345908
-0.976318359,-0.018066406,0.130371094,-0.020317231,0.051761669,-0.046257087
-0.973632813,0.004760742,0.090942383,-0.048961948,-0.077605865,-0.044791544
-0.964599609,0.009277344,0.112182617,-0.062951228,-0.131164824,-0.034665969
-0.970092773,-0.006591797,0.124023438,-0.069479559,-0.184857014,-0.008152953
-0.956420898,-0.008789063,0.150756836,-0.056822591,-0.185789633,0.003438165
-0.947875977,-0.013916016,0.188110352,-0.016719988,-0.150350123,0.014762821
-0.937866211,-0.014404297,0.180541992,0.006329017,-0.099056095,0.021957308
-0.967773438,0.00793457,0.17565918,0.057356582,0.016855084,0.055265118
-0.965454102,-0.005004883,0.176147461,0.080005893,0.050695819,0.072585179
-0.963256836,-0.00390625,0.16809082,0.107851222,0.072812205,0.094701565
-0.973876953,0.013549805,0.135864258,0.112381084,0.085202711,0.09310279
-0.98425293,0.015258789,0.140380859,0.121440809,0.091731041,0.100430509
-0.967529297,0.002075195,0.183959961,0.134364239,0.065084793,0.106159452
-0.959960938,0.000854492,0.172851563,0.156214163,0.003132266,0.104427446
-0.947509766,0.009399414,0.135986328,0.163275418,0.014989847,0.099631121
-0.963500977,0.033447266,0.130126953,0.173400993,0.098126141,0.071119636
-0.962036133,0.03112793,0.122558594,0.171402524,0.125305314,0.053932806
-0.965209961,0.008544922,0.104614258,0.143823657,0.134897963,0.050868487
-0.978393555,0.001098633,0.115356445,0.093995173,0.060554931,0.057396818
-0.979614258,0.005371094,0.121459961,0.074943106,0.006063354,0.061793449
-0.96862793,0.009643555,0.133178711,0.050828251,-0.057887642,0.069654092
-0.968383789,0.002075195,0.142822266,0.040036521,-0.059619648,0.069254398
-0.979492188,0.01184082,0.146850586,0.027512784,-0.026045375,0.058062974
-0.990112305,0.017944336,0.148803711,0.03244234,-0.008592083,0.059128824
-0.979736328,0.018798828,0.152954102,0.030976796,0.010726447,0.049935868
-0.975219727,0.007202148,0.154785156,0.030443871,0.005530429,0.035546894
-0.950317383,0.009277344,0.180053711,0.049895633,-0.033106631,0.010765884
-0.958496094,0.04309082,0.143188477,0.08826623,0.011525835,0.00290524
-0.944824219,0.056152344,0.12512207,0.098391804,0.055225682,0.005969559
-0.956176758,0.046386719,0.120117188,0.086400992,0.088933185,0.017027752
-0.971801758,0.024169922,0.128295898,0.067348925,0.016322159,0.033415195
-0.971679688,0.013427734,0.14074707,0.058155969,-0.044964211,0.037545363
-0.962646484,0.009765625,0.14465332,0.045232539,-0.121572175,0.050735256
-0.952392578,0.000732422,0.160400391,0.03883744,-0.109181669,0.080445822
-0.946166992,0.002563477,0.166137695,0.036572508,-0.092128071,0.09523449
-0.943115234,0.013061523,0.160400391,0.040835908,-0.058687029,0.118416726
-0.942993164,0.022583008,0.142822266,0.039370365,-0.040834043,0.126810294
-0.943115234,0.063476563,0.15637207,0.033641421,-0.01472072,0.118017032
-0.964233398,0.08203125,0.148925781,0.037505127,0.059489081,0.083909835
-0.970336914,0.063354492,0.179077148,0.052959951,0.121574839,0.039277369
-0.966796875,0.033691406,0.149047852,0.052959951,0.137029663,0.013030815
-0.973999023,0.043823242,0.134521484,0.056690426,0.159545743,-0.010551115
-0.96496582,0.056030273,0.151855469,0.061353519,0.145689694,-0.007620028
-0.961181641,0.054321289,0.153320313,0.079472968,0.13130072,0.005436634
-0.94543457,0.038818359,0.14831543,0.092396398,0.1495534,0.012897583
-0.951782227,0.033813477,0.151733398,0.108917072,0.197383415,0.024755164
-0.961669922,0.035522461,0.134155273,0.117710334,0.185259372,0.048203862
-0.953979492,0.036132813,0.120117188,0.120641421,0.163009755,0.06512423
-0.956298828,0.039550781,0.12121582,0.120641421,0.130368101,0.080445822
-0.963378906,0.048095703,0.121582031,0.111182003,0.118643752,0.070187017
-0.974243164,0.059814453,0.103515625,0.093595479,0.077075605,0.042741381
-0.975830078,0.056640625,0.104858398,0.085201911,0.032976064,0.032482576
-0.967285156,0.048828125,0.122070313,0.057623044,-0.052558392,0.009833265
-0.952270508,0.034301758,0.116577148,0.048696551,-0.06201781,-0.000292309
-0.962158203,0.032470703,0.129516602,0.035906352,-0.021648744,-0.013615433
-0.97265625,0.043823242,0.121704102,0.030443871,0.00992706,-0.021209614
-0.978515625,0.048950195,0.120361328,0.011924729,0.011925528,-0.031201957
-0.98425293,0.040039063,0.146728516,-0.023115087,-0.075207703,-0.033466888
-0.962280273,0.036254883,0.138061523,-0.036837905,-0.107849357,-0.033600119
-0.967041016,0.041748047,0.142822266,-0.047363173,-0.085866202,-0.030669032
-0.961669922,0.036499023,0.165893555,-0.045364705,-0.042965743,-0.02933672
-0.963989258,0.035522461,0.164550781,-0.029110493,0.035240995,-0.025606245
-0.958740234,0.053222656,0.150756836,-0.018718456,0.087734104,-0.026805326
-0.963378906,0.065551758,0.137817383,-0.011923663,0.101323691,-0.02827087
-0.97265625,0.063598633,0.142089844,0.006861942,0.087734104,-0.034932432
-0.943359375,0.032836914,0.130249023,0.017520441,0.070680505,-0.043992156
-0.941040039,0.025268555,0.128540039,0.023116153,0.074544211,-0.049987562
-0.951049805,0.034790039,0.139770508,0.028045709,0.065218025,-0.06797378
-0.963989258,0.048706055,0.138061523,0.034440809,0.042701945,-0.062244836
-0.965087891,0.042724609,0.12878418,0.054558726,0.028446202,-0.049188175
-0.942626953,0.026855469,0.140014648,0.068015081,0.044700414,-0.04652355
-0.951049805,0.021972656,0.116577148,0.076408649,0.089865804,-0.050254025
-0.970214844,0.031494141,0.115356445,0.079472968,0.102922466,-0.053051881
-0.967041016,0.031738281,0.138183594,0.06788185,0.050562588,-0.049854331
-0.978515625,0.03527832,0.119262695,0.060554132,-0.002196983,-0.02720502
-0.979370117,0.041015625,0.133300781,0.057623044,-0.009924395,-0.015880364
-0.973266602,0.033569336,0.145751953,0.054825188,-0.012855482,-0.005488328
-0.975708008,0.032958984,0.138916016,0.048430089,-0.005927458,-0.004289247
-0.978881836,0.033935547,0.120727539,0.022583228,-0.002729908,0.004370784
-0.980957031,0.033569336,0.1328125,0.012857348,-0.018184732,0.01356374
-0.973632813,0.01953125,0.157470703,0.006861942,-0.046296524,0.016894521
-0.968994141,0.020874023,0.154174805,0.01205796,-0.031374625,0.014096665
-0.966796875,0.02746582,0.144775391,0.027379553,0.047098576,0.012897583
-0.968261719,0.026367188,0.14074707,0.034307577,0.083204242,0.01569544
-0.967285156,0.026000977,0.133666992,0.03883744,0.103855084,0.027153326
-0.959106445,0.033813477,0.124023438,0.035773121,0.097326754,0.028752101
-0.961914063,0.042358398,0.105834961,0.028711865,0.083337473,0.018360064
-0.964111328,0.0390625,0.123291016,0.025114622,0.059089388,0.021291152
-0.963623047,0.034545898,0.125366211,0.005929323,0.00140026,0.02648717
-0.953857422,0.034667969,0.110473633,-0.003796557,-0.007393002,0.025021626
-0.959960938,0.042236328,0.119995117,-0.003663326,-0.005527764,0.011165577
-0.9609375,0.051879883,0.133056641,0.002998236,-0.008059158,0.001040003
-0.953369141,0.049560547,0.134399414,0.010725648,-0.014321026,-0.00895234
-0.94934082,0.045043945,0.129150391,0.022849691,-0.006060689,-0.01001819
-0.959716797,0.047851563,0.135620117,0.02711309,-0.001664058,-0.012949277
-0.966430664,0.032104492,0.151123047,0.038038052,0.014057228,-0.014015127
-0.966796875,0.022094727,0.154663086,0.034440809,0.026580965,-0.016546521
-0.967163086,0.028320313,0.144287109,0.018586291,0.03470807,-0.00788649
-0.971923828,0.037841797,0.136962891,0.009526567,0.03031144,-0.001224928
-0.978271484,0.044311523,0.143920898,0.003264698,0.017920934,-0.002157547
-0.982421875,0.047973633,0.161376953,0.001799155,0.004064885,-0.011616965
-0.979614258,0.049682617,0.149169922,0.006195786,-0.011389939,-0.015080977
-0.970947266,0.062133789,0.141235352,0.012724116,0.006995972,-0.012949277
-0.968505859,0.059204102,0.137207031,0.026313703,0.058822925,-0.012682815
-0.966064453,0.050292969,0.15222168,0.032975265,0.062420169,-0.012416352
-0.962402344,0.047851563,0.148071289,0.035373427,0.025381884,-0.011350502
-0.973999023,0.043945313,0.141601563,0.038970671,0.008195054,-0.011350502
-0.960205078,0.028320313,0.1328125,0.03563989,0.005397198,-0.012283121
-0.957763672,0.032348633,0.128662109,0.031642953,0.013657534,-0.007620028
-0.942382813,0.026855469,0.136108398,0.02058476,0.00779536,-0.001224928
-0.942382813,0.027099609,0.135864258,0.018985985,-0.004861608,0.000373847
-0.951782227,0.037475586,0.138183594,0.017653672,-0.01578657,-0.001091697
-0.963500977,0.044555664,0.143798828,0.019252447,-0.019250582,-0.00255724
-0.964111328,0.047607422,0.140014648,0.02711309,-0.010590551,-0.006154484
-0.954956055,0.042480469,0.146728516,0.036172815,0.001533492,-0.007486796
-0.952270508,0.035766602,0.138427734,0.041235602,0.028979127,-0.019344377
-0.98034668,0.039916992,0.135742188,0.043100839,0.035507458,-0.02187577
-0.987426758,0.04699707,0.146240234,0.045898695,0.010859678,-0.032800732
-0.985595703,0.04309082,0.147216797,0.053759339,-0.014454257,-0.046790012
-0.977905273,0.040161133,0.141357422,0.059221819,-0.004728377,-0.051586337
-0.97668457,0.028808594,0.131713867,0.056157501,0.029645283,-0.047855862
-0.972900391,0.015014648,0.147094727,0.048696551,0.031910214,-0.035998282
-0.970336914,0.013671875,0.159667969,0.029777715,-0.003129602,-0.008819109
-0.95703125,0.014892578,0.150878906,0.018186597,-0.002996371,0.014762821
-0.956665039,0.02355957,0.153564453,0.015122279,0.024049571,0.025954245
-0.960449219,0.035522461,0.135498047,0.014989047,0.079606999,0.042341688
-0.972045898,0.0390625,0.14465332,0.013923198,0.082671317,0.04047645
-0.971679688,0.036743164,0.151977539,0.011125342,0.03790562,0.022756695
-0.957885742,0.032104492,0.143188477,0.008061023,0.022450796,0.012231427
-0.951293945,0.029785156,0.128417969,0.008993642,0.047631501,0.005969559
-0.961303711,0.036499023,0.132568359,0.012457654,0.071479893,-0.000425541
-0.973510742,0.043457031,0.138549805,0.011125342,0.071080199,-0.019610839
-0.956665039,0.048461914,0.138305664,0.013923198,0.031377289,-0.031868113
-0.951538086,0.04699707,0.130981445,0.019252447,0.015922466,-0.030535801
-0.942626953,0.053588867,0.13671875,0.035506659,0.005263966,-0.018145296
-0.947265625,0.041015625,0.149047852,0.053492876,0.014989847,-0.014414821
-0.951782227,0.036621094,0.15222168,0.057356582,0.023783109,-0.016146827
-0.956665039,0.02746582,0.143676758,0.058155969,0.037639158,-0.008685878
-0.959106445,0.017578125,0.143188477,0.054292263,0.041902557,0.001972622
-0.97265625,0.020507813,0.155029297,0.050428557,0.036573308,0.016628058
-0.982788086,0.032348633,0.154541016,0.047763933,0.048031195,0.014762821
-0.975341797,0.038085938,0.138793945,0.045099308,0.069214962,0.011298809
-0.981445313,0.048950195,0.124023438,0.037105433,0.08400363,0.006768946
-0.99609375,0.048583984,0.139526367,0.030577103,0.058023538,0.001306466
-0.989990234,0.045410156,0.148803711,0.022583228,-0.021515513,-0.010551115
-0.972167969,0.038085938,0.144775391,0.021250916,-0.039102037,-0.014015127
-0.959716797,0.037231445,0.157470703,0.03137649,-0.013121945,-0.011750196
-0.955444336,0.029052734,0.15234375,0.038171283,0.016055697,-0.007753259
-0.95690918,0.02746582,0.14831543,0.053626107,0.079340536,0.000507078
-0.957397461,0.02746582,0.126708984,0.050028864,0.094662129,0.002505547
-0.960205078,0.027832031,0.130493164,0.031909415,0.075077136,0.014896052
-0.960693359,0.032958984,0.135986328,0.02058476,0.04643242,0.019159452
-0.956176758,0.041748047,0.133178711,0.007394867,0.009260904,0.013030815
-0.958251953,0.056274414,0.119506836,0.003131467,0.012991378,0.007701565
-0.969238281,0.053710938,0.12109375,-0.000465776,0.031510521,0.011032346
-0.971313477,0.041870117,0.141845703,6.71485E-05,0.018720322,0.004903709
-0.979003906,0.040649414,0.144165039,0.005263167,6.79479E-05,-0.001224928
-0.974975586,0.036743164,0.159423828,0.018719522,-0.0244466,-0.017745602
-0.96862793,0.027587891,0.158447266,0.029378021,0.003931654,-0.023341314
-0.967163086,0.030517578,0.150268555,0.035106965,0.038838239,-0.023874239
-0.959960938,0.032226563,0.141113281,0.042967608,0.094928591,-0.025473014
-0.960693359,0.037109375,0.134277344,0.041502064,0.096127672,-0.022009002
-0.957885742,0.03918457,0.118652344,0.025514316,0.063086325,-0.005221865
-0.959228516,0.041381836,0.123535156,0.009793029,0.00992706,0.009566802
-0.964233398,0.041015625,0.115356445,0.004064086,-0.000598208,0.005836328
-0.972167969,0.041259766,0.134765625,-0.003929789,-0.007792695,-0.002690472
-0.97668457,0.034545898,0.15246582,0.004197317,-0.009791164,-0.004156015
-0.975585938,0.04284668,0.153564453,0.013656735,-0.007393002,-0.004555709
-0.969848633,0.05090332,0.154541016,0.037238665,0.015789234,-0.007486796
-0.969482422,0.046264648,0.149536133,0.042567914,0.028979127,-0.008419415
-0.963378906,0.02746582,0.155151367,0.039370365,0.039371164,-0.004822172
-0.959716797,0.026977539,0.154541016,0.037904821,0.034041914,-0.001358159
-0.952392578,0.036499023,0.141845703,0.036572508,0.028446202,0.002638778
-0.949462891,0.038085938,0.135375977,0.033774652,0.04003732,0.001706159
-0.955688477,0.037475586,0.130493164,0.022982922,0.054559525,-0.003090165
-0.958007813,0.035766602,0.140625,0.016987516,0.041502864,-0.010417884
-0.963867188,0.043212891,0.130004883,0.016854285,-0.005927458,-0.021476077
-0.960693359,0.046875,0.147460938,0.023782309,-0.021915207,-0.02400747
-0.95703125,0.041992188,0.150024414,0.030976796,-0.014321026,-0.029203489
-0.939331055,0.035766602,0.135986328,0.039370365,0.030178208,-0.028004407
-0.946899414,0.037109375,0.130371094,0.043234071,0.047897963,-0.021742539
-0.959472656,0.040649414,0.135009766,0.037638358,0.042035789,-0.017079446
-0.969604492,0.036376953,0.136352539,0.030577103,0.022051103,-0.013615433
-0.970092773,0.039428711,0.128051758,0.012457654,-0.002330214,-0.006154484
-0.968994141,0.041381836,0.138061523,0.008727179,-0.007393002,-0.002690472
-0.972290039,0.048583984,0.151855469,0.017653672,-0.008192389,-0.000692003
-0.982788086,0.044677734,0.146240234,0.021250916,0.003398729,-0.009618496
-0.986938477,0.041870117,0.153686523,0.026446934,0.002332879,-0.008019721
-0.981567383,0.033325195,0.157714844,0.034041115,0.013524303,-0.002823703
-0.976806641,0.029174805,0.155395508,0.037638358,0.035507458,-0.006021253
-0.973022461,0.025512695,0.155883789,0.038304515,0.075210368,-0.013615433
-0.969360352,0.035644531,0.141723633,0.032175878,0.078940842,-0.014414821
-0.966796875,0.037719727,0.139526367,0.028045709,0.063219556,0.001572928
-0.961181641,0.042480469,0.151733398,0.026446934,0.046965345,0.01143204
-0.963500977,0.038574219,0.135498047,0.018852753,0.046832113,0.021557614
-0.963134766,0.039916992,0.149414063,0.021117685,0.054825988,0.022756695
-0.959106445,0.03503418,0.150756836,0.019385678,0.049763201,0.016628058
-0.95703125,0.03527832,0.143188477,0.01845306,0.040303783,0.013430508
-0.962890625,0.043212891,0.144897461,0.023782309,0.023649878,0.010632652
-0.967285156,0.047973633,0.146728516,0.028445403,0.016188928,0.004104322
-0.962890625,0.045288086,0.136108398,0.039770058,0.02711389,-0.006687409
-0.948486328,0.031494141,0.130249023,0.036838971,0.049097044,-0.012283121
-0.954345703,0.034667969,0.134887695,0.033241727,0.052161363,-0.014015127
-0.961303711,0.032592773,0.12487793,0.026979859,0.041369633,-0.019077914
-0.96875,0.036254883,0.131347656,0.027912478,0.023516646,-0.019077914
-0.973754883,0.03918457,0.138549805,0.030177409,-0.000864671,-0.010817577
-0.964599609,0.041015625,0.139526367,0.036972202,0.012724916,0.006635715
-0.969604492,0.048095703,0.148193359,0.043367302,0.01858709,0.010099727
-0.966430664,0.051391602,0.148071289,0.060687363,0.014323691,0.007834796
-0.955078125,0.044555664,0.159423828,0.072811406,0.016055697,0.003704628
-0.956176758,0.040893555,0.151733398,0.075476031,0.03470807,0.006902178
-0.958496094,0.034179688,0.149291992,0.081338205,0.076942374,0.017160983
-0.961303711,0.03137207,0.156860352,0.076408649,0.086934717,0.010632652
-0.957763672,0.038208008,0.122070313,0.060021207,0.103188928,-0.018278527
-0.953491211,0.039550781,0.120849609,0.035106965,0.078407917,-0.02187577
-0.962890625,0.044799805,0.118286133,0.024581697,0.052827519,-0.016146827
-0.967529297,0.047607422,0.127075195,0.011791498,0.01752124,-0.014947746
-0.976806641,0.049560547,0.123291016,0.006861942,0.027913277,-0.028137639
-0.977783203,0.051513672,0.141357422,0.006595479,0.02924559,-0.03040257
-0.96862793,0.047729492,0.147216797,0.004863473,0.007528897,-0.035332126
-0.963989258,0.034423828,0.142944336,0.006329017,-0.002729908,-0.032800732
-0.969116211,0.032104492,0.1484375,0.016587822,0.004198116,-0.029469951
-0.961303711,0.031494141,0.153198242,0.023382616,0.039904089,-0.028137639
-0.959594727,0.032226563,0.142700195,0.025780778,0.060554931,-0.021742539
-0.960449219,0.038696289,0.128540039,0.030443871,0.071479893,0.000107384
-0.964111328,0.038452148,0.139404297,0.029644484,0.036573308,0.010765884
-0.957275391,0.042236328,0.1484375,0.030443871,0.021384946,0.009167109
-0.943115234,0.038085938,0.128295898,0.033641421,0.030178208,-0.001091697
-0.944213867,0.034912109,0.126464844,0.034440809,0.04323487,-2.58469E-05
-0.962524414,0.038574219,0.132324219,0.032042646,0.046299188,-0.000558772
-0.968505859,0.037841797,0.140991211,0.030044178,0.011259372,-0.003489859
-0.962036133,0.039916992,0.134155273,0.031243259,-0.004994839,-0.009218802
-0.960327148,0.044555664,0.131103516,0.03457404,0.002332879,-0.016946214
-0.969726563,0.045288086,0.133544922,0.035506659,0.01752124,-0.020543458
-0.973999023,0.041259766,0.141723633,0.03883744,0.032043446,-0.015747133
-0.970581055,0.027832031,0.140991211,0.034840502,0.02498219,-0.016546521
-0.971313477,0.027709961,0.136352539,0.019652141,0.019519709,-0.022142233
-0.975708008,0.026489258,0.146606445,0.013923198,0.021384946,-0.025606245
-0.975341797,0.027832031,0.149414063,0.004730242,0.015789234,-0.031734882
-0.967895508,0.031982422,0.149414063,0.003131467,0.011126141,-0.030535801
-0.961914063,0.038696289,0.149414063,0.006062554,0.016988315,-0.014015127
-0.965454102,0.03918457,0.130981445,0.010059492,0.034574839,-0.008819109
-0.969482422,0.042236328,0.135986328,0.020984453,0.070414043,-0.01214989
-0.967041016,0.037597656,0.137084961,0.021117685,0.071080199,-0.017745602
-0.962524414,0.039306641,0.139526367,0.019385678,0.035107764,-0.018278527
-0.954711914,0.034545898,0.137329102,0.019918603,0.024715727,-0.017745602
-0.95703125,0.040527344,0.131713867,0.021783841,0.038305314,-0.021476077
-0.966308594,0.038085938,0.139648438,0.024581697,0.063219556,-0.028537332
-0.964233398,0.030883789,0.145996094,0.024714928,0.066683568,-0.027338251
-0.961425781,0.021850586,0.146484375,0.022716459,0.063885712,-0.012416352
-0.962524414,0.024902344,0.135498047,0.020451528,0.054692757,0.001706159
-0.970214844,0.032592773,0.139526367,0.020717991,0.04110317,0.002105853
-0.96472168,0.030761719,0.147949219,0.02165061,0.013923997,-0.004022784
-0.967407227,0.032470703,0.148193359,0.020318297,0.020319097,-0.008152953
-0.966918945,0.032836914,0.131591797,0.018852753,0.064551868,-0.011350502
-0.966552734,0.030883789,0.131713867,0.019785372,0.073878055,-0.009884959
-0.97277832,0.040283203,0.14453125,0.01845306,0.049363507,-0.008685878
-0.967529297,0.041259766,0.134033203,0.020051835,0.036440077,-0.006154484
-0.971191406,0.045410156,0.128540039,0.029511253,0.04216902,0.002638778
-0.977539063,0.036743164,0.132446289,0.032175878,0.046565651,-0.000558772
-0.975830078,0.024658203,0.144042969,0.029378021,0.043634564,-0.003223397
-0.975952148,0.028320313,0.140014648,0.020717991,0.030444671,-0.009884959
-0.966186523,0.042236328,0.129882813,0.025247853,0.022983721,-0.006287715
-0.973999023,0.0390625,0.135375977,0.029910946,0.032176677,-0.00895234
-0.976318359,0.033935547,0.138916016,0.038171283,0.041236401,-0.016812983
-0.9609375,0.029052734,0.131103516,0.039103902,0.039237933,-0.018811452
-0.954833984,0.032958984,0.132324219,0.039770058,0.027380352,-0.016413289
-0.957763672,0.032714844,0.122924805,0.038704208,0.021251715,-0.01108404
-0.958618164,0.03112793,0.130126953,0.036039584,0.017920934,-0.000292309
-0.968994141,0.035888672,0.135620117,0.030044178,0.007129204,-0.001091697
-0.963134766,0.035888672,0.137573242,0.031509721,0.001533492,-0.000292309
-0.963745117,0.03527832,0.130493164,0.03670574,0.016322159,0.00823449
-0.966186523,0.036254883,0.131347656,0.041102371,0.02285049,0.011964965
-0.976196289,0.02722168,0.145996094,0.039636827,0.013923997,0.006902178
-0.970581055,0.032714844,0.148071289,0.046964545,0.003665191,0.006236021
-0.958618164,0.038574219,0.132080078,0.050961482,0.016455391,0.003704628
-0.961425781,0.041748047,0.134521484,0.058422432,0.047764732,-0.002823703
-0.963867188,0.032958984,0.131347656,0.057356582,0.041502864,-0.010950809
-0.959594727,0.034912109,0.118164063,0.053359645,0.00140026,-0.021609308
-0.952514648,0.044555664,0.129638672,0.044566383,-0.024979525,-0.023607776
-0.951904297,0.044555664,0.114379883,0.038038052,-0.039368499,-0.023741008
-0.960693359,0.036254883,0.131835938,0.034840502,-0.034838637,-0.029070257
-0.971923828,0.039428711,0.140380859,0.029644484,-0.056155636,-0.038929369
-0.970825195,0.02355957,0.147094727,0.030044178,-0.068013216,-0.041327531
-0.967773438,0.029296875,0.150024414,0.027779247,-0.071077535,-0.030935495
-0.965454102,0.032592773,0.150756836,0.031243259,-0.046829449,-0.018811452
-0.96875,0.038452148,0.150146484,0.037238665,-0.028177075,-0.01214989
-0.971191406,0.027832031,0.165527344,0.051894101,0.001666723,0.001706159
-0.967895508,0.018920898,0.158081055,0.059621513,0.010060291,0.005569865
-0.976196289,0.025634766,0.146484375,0.064018144,0.030044977,0.010232959
-0.975219727,0.045288086,0.131591797,0.06361845,0.033242527,0.015428977
-0.977050781,0.043823242,0.137329102,0.060953826,-0.002729908,0.025821014
-0.987792969,0.030639648,0.149169922,0.056423963,-0.0329734,0.020358533
-0.978881836,0.030761719,0.138671875,0.045898695,-0.07600709,-0.000558772
-0.958251953,0.034545898,0.125610352,0.039103902,-0.085866202,-0.00468894
-0.975952148,0.036376953,0.130004883,0.031642953,-0.122638025,-0.002424009
-0.99230957,0.026367188,0.153442383,0.022716459,-0.198313369,-0.005888021
-0.973266602,0.02722168,0.151855469,0.017786904,-0.234818729,-0.009352034
-0.974853516,0.042114258,0.150024414,0.01845306,-0.279584426,-0.010551115
-0.981811523,0.046630859,0.155639648,0.013257041,-0.344601272,-0.007220334
-0.977661133,0.032714844,0.165039063,0.004597011,-0.394030062,-0.00468894
-0.971801758,0.011230469,0.183837891,-0.022848625,-0.477432818,-0.010417884
-0.950195313,0.03125,0.181274414,-0.03950253,-0.485959618,-0.010284652
-0.931640625,0.0390625,0.195556641,-0.044032392,-0.470904488,-0.001224928
-0.937866211,0.037841797,0.209350586,-0.024180937,-0.445324089,0.007968028
-0.953491211,0.037109375,0.237915039,0.016054897,-0.355393002,0.004504015
-0.950195313,0.032226563,0.25012207,0.033241727,-0.305564518,-0.001224928
-0.954711914,0.028320313,0.242797852,0.06575015,-0.21017095,-2.58469E-05
-0.94909668,0.036987305,0.251586914,0.077740962,-0.120373094,-0.002424009
-0.948608398,0.033447266,0.252807617,0.082670518,-0.070011685,-0.008286184
-0.951049805,0.039550781,0.244995117,0.081204974,-0.071343997,-0.000958466
-0.961914063,0.043334961,0.237060547,0.075209568,-0.099722251,-0.000692003
-0.959594727,0.039550781,0.239135742,0.068148312,-0.148751348,0.00610279
-0.955688477,0.032470703,0.240478516,0.054425495,-0.275587489,0.019825608
-0.965332031,0.033203125,0.257202148,0.051494407,-0.339804947,0.002239084
-0.964111328,0.033325195,0.258300781,0.054292263,-0.340071409,-0.019077914
-0.969116211,0.025390625,0.25793457,0.050028864,-0.368716126,-0.061045755
-0.955810547,0.029907227,0.256225586,0.048163626,-0.409618117,-0.070771636
-0.940307617,0.045532227,0.268676758,0.044566383,-0.453184733,-0.075967654
-0.940917969,0.044555664,0.278320313,0.035240196,-0.508475697,-0.075035035
-0.93347168,0.019897461,0.303833008,0.032575571,-0.498883048,-0.068906398
-0.951293945,0.015380859,0.307495117,0.031642953,-0.44106069,-0.064110074
-0.969604492,0.030151367,0.330688477,0.033774652,-0.443592083,-0.073569492
-0.963378906,0.046508789,0.335571289,0.033774652,-0.491422099,-0.074235648
-0.963012695,0.047729492,0.323364258,0.034973734,-0.48729193,-0.061312218
-0.940185547,0.047851563,0.346069336,0.044433152,-0.422275085,-0.02080992
-0.925048828,0.033325195,0.364379883,0.058955357,-0.37018167,-0.00788649
-0.915039063,0.012817383,0.359863281,0.074809875,-0.238549204,-0.00682064
-0.930053711,0.009643555,0.365600586,0.081471437,-0.193383813,-0.008819109
-0.942626953,0.016601563,0.378173828,0.078940043,-0.214567581,-0.009352034
-0.945068359,0.022827148,0.37487793,0.076142187,-0.26173144,-0.003223397
-0.95300293,0.024414063,0.375,0.055091651,-0.3809734,-0.015747133
-0.964355469,0.024169922,0.376708984,0.03244234,-0.465042313,-0.032134576
-0.942504883,0.033813477,0.356323242,-0.00512887,-0.61506069,-0.052785418
-0.937866211,0.036376953,0.362915039,-0.0223157,-0.667154105,-0.06477623
-0.922485352,0.022460938,0.397583008,-0.043499467,-0.759350124,-0.08409476
-0.913330078,0.011474609,0.404052734,-0.041900692,-0.772540016,-0.091555709
-0.897705078,0.005004883,0.44909668,-0.026179406,-0.72351092,-0.121133045
-0.900512695,0.00769043,0.455078125,-0.015654138,-0.669285805,-0.130992156
-0.888061523,0.0234375,0.47277832,0.018719522,-0.591611992,-0.126861988
-0.881469727,0.015869141,0.478637695,0.03777159,-0.576556861,-0.10994162
-0.875,0.012207031,0.504638672,0.070946169,-0.546180139,-0.082762447
-0.87109375,0.014892578,0.52331543,0.089865005,-0.530991777,-0.069972248
-0.889648438,0.018188477,0.505249023,0.108117685,-0.532723783,-0.058514361
-0.876464844,0.016601563,0.506103516,0.107318297,-0.569895299,-0.044924775
-0.877197266,0.022827148,0.504394531,0.097325954,-0.640641088,-0.037597057
-0.879516602,0.014648438,0.516235352,0.088399461,-0.658494074,-0.036664438
-0.895751953,0.003417969,0.508666992,0.059754744,-0.63651092,-0.033999813
-0.895751953,0.005493164,0.547729492,0.054558726,-0.603736035,-0.034266276
-0.872314453,0.004760742,0.576171875,0.060953826,-0.557771257,-0.049987562
-0.850830078,-0.013916016,0.552246094,0.079339737,-0.506343998,-0.040528144
-0.846679688,-0.005737305,0.575317383,0.084535755,-0.473036187,-0.032800732
-0.861572266,0.005371094,0.605957031,0.087999767,-0.456382282,-0.030269338
-0.880126953,-0.008056641,0.581298828,0.094528098,-0.501814135,-0.02080992
-0.876953125,-0.00390625,0.584716797,0.083736368,-0.533389939,-0.028670564
-0.85925293,-0.005737305,0.585083008,0.041768527,-0.680077535,-0.032001345
-0.85168457,-0.007568359,0.579467773,0.021917072,-0.765878454,-0.012549583
-0.827392578,-0.009155273,0.610351563,-0.00406302,-0.868200047,0.017294214
-0.837890625,-0.003295898,0.637207031,-0.013922132,-0.865668654,0.027419789
-0.825561523,0.007568359,0.663085938,-0.014055363,-0.752288868,0.040609682
-0.799316406,-0.000732422,0.662841797,-0.001398395,-0.678745223,0.048870018
-0.776245117,0.01550293,0.718994141,0.041235602,-0.540184733,0.051401412
-0.760620117,0.012451172,0.728149414,0.06148675,-0.463443538,0.041941994
-0.742553711,-0.013549805,0.711425781,0.116777715,-0.33367631,0.034214582
-0.751098633,-0.008544922,0.716064453,0.132898695,-0.329945835,0.039677063
-0.765136719,-0.002075195,0.705444336,0.145688895,-0.461711532,0.067655623
-0.758056641,0.018066406,0.709716797,0.126503596,-0.527927459,0.059395286
-0.807861328,0.032836914,0.670898438,0.097592417,-0.568429756,0.06299253
-0.791137695,0.050292969,0.699707031,0.086800686,-0.551109694,0.055265118
-0.780639648,0.029663086,0.704711914,0.060021207,-0.513405253,0.026353939
-0.755981445,0.014282227,0.702636719,0.042967608,-0.516203109,-2.58469E-05
-0.759643555,0.016235352,0.709716797,0.029378021,-0.566298056,-0.004022784
-0.744750977,0.008300781,0.762939453,0.026180472,-0.584017811,-0.01534744
-0.743164063,0.019042969,0.775878906,0.034041115,-0.590945835,-0.030136107
-0.759277344,0.018920898,0.775390625,0.042834377,-0.667420568,-0.029603182
-0.716430664,0.029052734,0.784790039,0.053359645,-0.717382283,-0.031335188
-0.700927734,0.03112793,0.777709961,0.062286138,-0.726175545,-0.033999813
-0.68371582,0.024780273,0.798461914,0.068814469,-0.714451195,-0.052518956
-0.723388672,0.012207031,0.808959961,0.069214162,-0.691801885,-0.046390319
-0.702880859,0.02746582,0.806030273,0.069747087,-0.643705407,-0.066241773
-0.682861328,-0.008544922,0.802856445,0.060287669,-0.66875288,-0.072770104
-0.674072266,-0.017089844,0.856079102,0.01099211,-0.85674216,-0.081563366
-0.687744141,-0.006713867,0.877319336,-0.002064551,-0.952668654,-0.072503642
-0.670776367,0.000854492,0.881469727,-0.00299717,-0.884187796,-0.038129982
-0.634033203,0.029418945,0.898681641,0.015388741,-0.760415973,-0.024940089
-0.631835938,0.037353516,0.895385742,0.076142187,-0.485426693,-0.006953871
-0.602539063,0.010131836,0.912353516,0.108117685,-0.366451195,0.002772009
-0.57434082,0.002197266,0.928344727,0.177930855,-0.179794227,0.022889927
-0.559936523,0.010864258,0.936645508,0.213770058,-0.099056095,0.017027752
-0.572998047,0.012207031,0.94152832,0.281717991,0.000600873,0.006236021
-0.594848633,0.025268555,0.937255859,0.30090329,0.002732573,0.006635715
-0.59375,0.031494141,0.897705078,0.294774653,-0.068013216,-0.021342845
-0.603027344,0.033325195,0.878295898,0.248143719,-0.190985651,-0.054117731
-0.590454102,0.036499023,0.845703125,0.176598542,-0.374445069,-0.049321406
-0.616943359,0.025512695,0.846923828,0.127702677,-0.493553799,-0.053051881
-0.62512207,0.012207031,0.883422852,0.014322891,-0.76214798,-0.033999813
-0.625732422,-0.007568359,0.893310547,-0.042167155,-0.861538485,-0.019344377
-0.593139648,0.012573242,0.897705078,-0.111314169,-0.808645683,0.052467262
-0.533325195,0.047363281,0.941040039,-0.128500999,-0.688737566,0.044073694
-0.537841797,0.051635742,0.9765625,-0.09745812,-0.490089786,0.022090539
-0.502807617,0.038696289,0.99609375,-0.059220754,-0.41854461,0.014496358
-0.489501953,0.034545898,0.999633789,0.030177409,-0.323284273,-0.008286184
-0.489501953,0.042114258,1.021362305,0.075875724,-0.305431287,-0.027737945
-0.497924805,0.038818359,0.985595703,0.131966077,-0.267460383,-0.051453106
-0.501953125,0.039672852,0.942504883,0.152350457,-0.223627305,-0.062111605
-0.516601563,0.039428711,0.932128906,0.144756276,-0.230422098,-0.036264744
-0.541748047,0.048950195,0.942260742,0.141425495,-0.303566049,0.000240616
-0.551635742,0.023681641,0.932250977,0.114246322,-0.52273144,0.079513204
-0.548461914,0.040649414,0.928588867,0.100390273,-0.659693156,0.111888395
-0.591064453,0.041748047,0.948608398,0.010725648,-1.041000966,0.172908303
-0.524047852,0.033203125,0.980712891,-0.069879253,-1.290276617,0.181968028
-0.485961914,0.030517578,0.960693359,-0.222429023,-1.732204642,0.180369253
-0.432128906,0.032714844,0.98449707,-0.32408446,-1.735668655,0.164115042
-0.345458984,0.015136719,1.028198242,-0.341537752,-1.353694688,0.145995593
-0.309326172,0.010620117,1.018920898,-0.341138059,-1.061385346,0.134670937
-0.295654297,0.032470703,1.001220703,-0.291043112,-0.410417504,0.131340156
-0.280273438,0.020629883,1.024047852,-0.259200846,-0.13076513,0.127876144
-0.276123047,-0.023803711,1.078613281,-0.179395333,0.248544212,0.111621933
-0.27746582,-0.015991211,1.108032227,-0.124504061,0.349400261,0.094435103
-0.317993164,0.009155273,1.085205078,-0.01698645,0.397363507,0.037678594
-0.338867188,0.006347656,1.048706055,0.007394867,0.33754268,0.007301871
-0.344848633,0.006958008,1.056884766,0.034840502,0.057090919,-0.041593994
-0.381835938,0.014526367,1.074462891,0.032842034,-0.116909081,-0.066108542
-0.379760742,0.016967773,1.045166016,0.020318297,-0.404821792,-0.06690793
-0.369506836,0.007202148,1.042236328,0.00233208,-0.482229143,-0.060113136
-0.360839844,0.001464844,1.073852539,-0.020850156,-0.545380751,-0.047855862
-0.334106445,-0.005004883,1.082275391,-0.061752147,-0.628250583,-0.06371038
-0.378051758,0.010498047,1.051879883,-0.105984919,-0.711520108,0.004237553
-0.388671875,0.020507813,1.051025391,-0.121839437,-0.701794228,0.055131887
-0.326049805,-0.000244141,1.075317383,-0.135295792,-0.615726846,0.141732193
-0.32434082,-0.017822266,1.069946289,-0.136628104,-0.555906019,0.176772009
-0.253051758,-0.010009766,1.072753906,-0.141690891,-0.459446601,0.179836328
-0.237060547,-0.015625,1.128295898,-0.083335608,-0.343002497,0.135070631
-0.220825195,-0.017089844,1.136352539,-0.048162561,-0.256135728,0.098165577
-0.221313477,-0.010009766,1.138671875,0.041102371,-0.114510919,0.033015501
-0.218139648,-0.020141602,1.156860352,0.090797623,-0.089330215,0.003171703
-0.236938477,-0.006469727,1.143798828,0.167538818,-0.114777381,-0.053851268
-0.255981445,-0.01171875,1.102294922,0.180462248,-0.154080597,-0.065042692
-0.269775391,-0.005493164,1.04699707,0.146088588,-0.242279679,-0.074635342
-0.257080078,-0.001953125,1.062255859,0.133564852,-0.300235268,-0.06797378
-0.244140625,-0.00793457,1.115478516,0.131166689,-0.437596677,-0.062910992
-0.274536133,-0.001464844,1.107910156,0.117044178,-0.485026999,-0.040261682
-0.274902344,0.008911133,1.007568359,0.039636827,-0.513938178,0.016494827
-0.2734375,0.017211914,1.021728516,0.002865005,-0.507809541,0.054465731
-0.227172852,0.005371094,1.079833984,-0.027911412,-0.480630368,0.103361596
-0.149658203,0.002807617,1.102294922,-0.016853219,-0.468639557,0.085908303
-0.134765625,-0.006591797,1.119384766,-0.023514781,-0.43253389,-0.002424009
-0.145996094,-0.011352539,1.11730957,-0.024713862,-0.403089786,-0.036264744
-0.179443359,0.005737305,1.099365234,0.017786904,-0.354593615,-0.044658312
-0.190795898,0.014038086,1.171875,0.065883381,-0.35952317,-0.025473014
-0.151123047,-0.008300781,1.111450195,0.109583228,-0.40775288,-0.011883427
-0.148193359,-0.00793457,1.106323242,0.113446934,-0.43573144,-0.006953871
-0.104492188,-0.03503418,1.129516602,0.119575571,-0.458913676,-0.036131513
-0.105834961,-0.024780273,1.1484375,0.123572509,-0.45611582,-0.045724162
-0.092651367,0.006347656,1.104858398,0.125570977,-0.460645682,-0.077299966
-0.096191406,0.023925781,1.120483398,0.143557195,-0.482095912,-0.088757853
-0.146118164,0.022949219,1.128417969,0.185125342,-0.547112757,-0.059313749
-0.152099609,0.00769043,1.092895508,0.182860411,-0.560835575,-0.026405633
-0.159301758,0.01159668,1.087768555,0.12477159,-0.566031593,0.03075057
-0.132202148,0.028320313,1.118164063,0.081604668,-0.588414442,0.041409069
-0.104614258,0.0390625,1.131591797,0.006861942,-0.690602803,0.026353939
-0.046264648,0.030517578,1.09765625,0.000866536,-0.736967275,0.01462959
-0.026367188,0.006469727,1.089477539,0.005529629,-0.716183202,0.022889927
-0.037597656,0.001098633,1.108520508,-0.000998701,-0.646902956,0.057530049
-0.031982422,0.000854492,1.103881836,-0.007660263,-0.624653339,0.068188548
-0.025634766,0.013916016,1.125854492,-0.029510187,-0.609331747,0.072318717
0.033569336,0.011352539,1.093139648,-0.033906818,-0.625452727,0.075649498
0.059204102,0.010498047,1.12878418,-0.006327951,-0.655562987,0.04687155
0.069702148,0.005981445,1.17175293,0.016188129,-0.609198515,-0.033200426
0.05065918,0.015380859,1.146728516,0.017920135,-0.544048439,-0.053051881
0.049316406,0.017089844,1.119384766,0.017120747,-0.45398412,-0.055982968
0.071777344,0.004272461,1.150146484,0.013390273,-0.461045376,-0.059979905
0.102050781,0.022338867,1.107543945,0.025914009,-0.517402191,-0.068107011
0.099121094,0.02331543,1.107421875,0.036439277,-0.516602803,-0.070505173
0.058105469,0.019165039,1.152099609,0.061220288,-0.403089786,-0.026005939
0.04296875,0.017822266,1.13293457,0.061753213,-0.315956555,-0.002157547
0.078857422,0.013305664,1.157958984,0.077074806,-0.199912144,0.021024689
0.123779297,-0.020751953,1.147949219,0.076008956,-0.188454258,0.022623464
0.128540039,-0.018310547,1.148681641,0.053492876,-0.225492542,0.007701565
0.110595703,-0.009277344,1.159179688,0.040036521,-0.252138791,0.000640309
0.085449219,-0.003051758,1.170776367,0.007394867,-0.329679373,-0.00788649
0.065185547,0.020263672,1.150878906,-0.004995639,-0.36698412,0.003571397
0.099731445,0.026489258,1.150756836,-0.019917538,-0.450253645,0.013164046
0.158325195,0.010864258,1.15625,-0.028577568,-0.495152573,-0.001491391
0.158935547,0.029174805,1.139770508,-0.016453525,-0.449587489,-0.023208083
0.16015625,0.020629883,1.124267578,-0.002464245,-0.343668653,-0.02400747
0.16003418,0.028808594,1.145996094,0.049362708,-0.130498668,-0.002424009
0.127075195,0.045898438,1.132324219,0.127036521,0.022184334,0.037012438
0.133666992,0.010864258,1.123168945,0.148486751,0.075343599,0.049935868
0.196166992,-0.01940918,1.098876953,0.129567914,-0.010990245,0.037012438
0.12902832,0.004516602,1.125366211,0.098658267,-0.217232206,0.0500691
0.113891602,0.026855469,1.132446289,0.101322891,-0.302233737,0.066723005
0.1484375,0.014160156,1.136108398,0.083736368,-0.430668653,0.06832178
0.163574219,-0.00012207,1.124023438,0.052160564,-0.522198515,0.054465731
0.171386719,-0.004638672,1.126464844,-0.038170218,-0.733902957,0.037145669
0.166625977,0.014282227,1.119140625,-0.063617384,-0.781200047,0.048603556
0.243041992,0.031860352,1.120727539,-0.08466792,-0.729106632,0.040876144
0.268432617,0.010864258,1.134887695,-0.084268227,-0.544847826,0.014096665
0.268554688,-0.00402832,1.134887695,-0.084001764,-0.474901425,0.005170172
0.265625,0.000732422,1.108642578,-0.047629636,-0.266794227,0.025821014
0.266723633,0.017333984,1.097412109,-0.014455057,-0.143821792,0.049136481
0.248657227,0.006713867,1.120239258,0.034041115,0.003931654,0.085375378
0.256347656,0.004882813,1.106201172,0.044966077,-0.000598208,0.086174766
0.228271484,0.003540039,1.088256836,0.027912478,-0.173399127,0.074983342
0.240722656,0.00390625,1.107421875,0.014589354,-0.312625774,0.063258992
0.251831055,0.01953125,1.068725586,0.030443871,-0.528460384,0.039144138
0.280395508,0.009521484,1.08203125,0.039770058,-0.613595146,0.019425914
0.296020508,-0.009399414,1.118408203,0.017253979,-0.749890705,-0.040394913
0.263183594,0.014526367,1.108886719,-0.024047706,-0.771207704,-0.02720502
0.296630859,0.029418945,1.065185547,-0.018318763,-0.706590552,0.01249789
0.359863281,0.01574707,1.083984375,0.034840502,-0.552575238,0.022090539
0.357421875,-0.024414063,1.088134766,0.046298389,-0.48622608,0.004237553
0.328735352,-0.025024414,1.098876953,0.044166689,-0.434798821,0.005703096
0.325561523,0.015869141,1.098266602,0.030843565,-0.462910613,0.013297277
0.323120117,0.030761719,1.078613281,0.024315234,-0.657028531,0.021424383
0.271118164,0.046020508,1.060668945,0.016854285,-0.78586314,0.042075225
0.289794922,0.028808594,1.084106445,-0.007793495,-1.058054565,0.078847048
0.358886719,-0.006347656,1.05456543,-0.021782775,-1.154913677,0.091637247
0.389404297,-0.010498047,1.036621094,-0.073742959,-1.229256709,0.08550861
0.464111328,0.002075195,1.01550293,-0.065349391,-1.179428225,0.08124521
0.466064453,0.021850586,0.99609375,0.009793029,-0.9157636,0.057530049
0.509155273,0.01550293,1.029541016,0.056956888,-0.755219955,0.02968472
0.518920898,0.002197266,1.032226563,0.101722585,-0.491155636,-0.020943152
0.486206055,0.00378418,1.006103516,0.116511253,-0.405887642,-0.030802263
0.471069336,-0.004638672,0.991943359,0.142358114,-0.336074472,-0.032267807
0.47668457,-0.010864258,0.999267578,0.147154438,-0.300634962,-0.043459231
0.489990234,0.012084961,1.020507813,0.12477159,-0.286778913,-0.045191237
0.5,0.008300781,1.003051758,0.101056429,-0.330212298,-0.029469951
0.555419922,-0.007446289,1.00402832,0.094528098,-0.26386314,-0.045058006
0.556762695,-0.00402832,1.006835938,0.085601605,-0.171800352,-0.064509767
0.500854492,0.020629883,1.035766602,0.069880319,0.026847427,-0.062777761
0.514648438,0.024658203,1.004638672,0.063351988,0.07547683,-0.057182049
0.503295898,0.017333984,0.994750977,0.027246322,0.029645283,-0.039861988
0.49206543,0.004272461,0.998413086,0.007128404,-0.04696268,-0.017745602
0.489379883,0.000366211,0.993041992,-0.027911412,-0.230288867,0.038477982
0.537231445,0.009521484,1.010620117,-0.044965011,-0.301567581,0.056997124
0.528320313,0.007080078,1.028564453,-0.073476496,-0.38203925,0.06405838
0.508056641,0.006713867,1.014282227,-0.077473433,-0.40348948,0.079646435
0.529541016,0.009643555,1.021240234,-0.062418303,-0.469572175,0.119349345
0.552734375,-0.005371094,0.995727539,-0.052958885,-0.495152573,0.119216113
0.592163086,-0.018798828,0.975463867,-0.047762867,-0.463043844,0.096033878
0.582397461,-0.001708984,0.985229492,-0.042833311,-0.41534706,0.075249804
0.588134766,0.002319336,1.000488281,-0.029776649,-0.414814135,0.070453479
0.622924805,0.001586914,0.960693359,-0.007393801,-0.43999484,0.028352407
0.615234375,-0.018676758,0.967407227,-0.004462714,-0.467573707,0.009566802
0.580688477,-0.011230469,0.970581055,-0.005928257,-0.541916739,-0.005355096
0.579101563,-0.008544922,0.951049805,-0.015520907,-0.592811073,-0.007087103
0.581420898,-0.008666992,0.959106445,-0.037504061,-0.710054565,0.008367721
0.594604492,-0.012695313,0.98046875,-0.053225348,-0.766677842,0.019425914
0.587524414,-0.017089844,0.932250977,-0.047629636,-0.752022405,0.057796512
0.662963867,0.006713867,0.899414063,-0.016053832,-0.59893971,0.058995593
0.686279297,-0.000610352,0.911865234,-0.003929789,-0.521265897,0.038611213
0.662475586,-0.002685547,0.904418945,0.011924729,-0.386435881,0.016761289
0.677978516,-0.017089844,0.917236328,0.021384147,-0.326881517,0.001706159
0.716918945,-0.017211914,0.872436523,0.040036521,-0.246409847,-0.044791544
0.720092773,-0.017456055,0.858154297,0.052959951,-0.236417504,-0.06264453
0.685668945,-0.005737305,0.882446289,0.078540349,-0.303166356,-0.085560303
0.667480469,-0.002685547,0.898925781,0.082537286,-0.356991777,-0.093420947
0.668823242,-0.022583008,0.908569336,0.064417838,-0.415480292,-0.085826766
0.671386719,-0.010009766,0.886352539,0.041502064,-0.479964212,-0.060912524
0.666870117,0.000244141,0.88684082,0.048963014,-0.528993309,-0.043059538
0.665527344,0.012207031,0.87512207,0.068281544,-0.638909082,-0.010950809
0.686035156,0.009643555,0.878417969,0.069347394,-0.675947367,-0.00362309
0.725708008,-0.026977539,0.870605469,0.045632233,-0.664889174,0.003837859
0.723388672,-0.028808594,0.833251953,0.052959951,-0.619057627,0.011964965
0.759277344,0.006469727,0.817016602,0.091996705,-0.507809541,-0.03146842
0.708984375,0.008911133,0.831542969,0.104786904,-0.487691624,-0.044924775
0.696777344,0.01953125,0.828735352,0.095593948,-0.547512451,-0.037197363
0.734741211,0.026855469,0.813842773,0.076408649,-0.621322558,-0.04012845
0.751831055,0.015258789,0.810058594,0.033241727,-0.806913676,-0.053984499
0.759643555,0.016479492,0.758789063,0.034041115,-0.847815667,-0.052119262
0.768432617,0.016723633,0.776733398,0.044966077,-0.787861609,-0.0411943
0.795043945,0.009399414,0.791503906,0.051894101,-0.71818167,-0.033200426
0.80078125,0.002319336,0.793212891,0.035906352,-0.618791165,-0.024673626
0.826416016,-0.015991211,0.769775391,0.021783841,-0.600405253,-0.023074851
0.822021484,-0.021484375,0.732910156,0.05282672,-0.548045376,-0.000159078
0.846435547,-0.010131836,0.719482422,0.098391804,-0.478098975,-0.012949277
0.856079102,-0.001953125,0.727661133,0.096126873,-0.434265896,-0.037197363
0.839111328,0.013549805,0.725341797,0.077074806,-0.436131134,-0.051586337
0.827514648,0.013671875,0.74206543,0.041102371,-0.516203109,-0.0475894
0.845947266,0.00769043,0.726074219,0.040036521,-0.52166559,-0.049054943
0.833129883,0.024169922,0.64074707,0.059887976,-0.471437413,-0.054384193
0.842285156,0.021362305,0.699707031,0.08506868,-0.448921333,-0.056116199
0.819458008,0.015014648,0.669921875,0.118642953,-0.470771256,-0.02613917
0.849975586,0.011962891,0.686157227,0.116111559,-0.544847826,-0.008819109
0.872924805,-0.00793457,0.689208984,0.074543412,-0.711520108,0.001040003
0.870483398,0.008056641,0.647338867,0.0646843,-0.757218424,0.009433571
0.872680664,0.022827148,0.647949219,0.080005893,-0.730039251,0.021557614
0.880371094,0.013427734,0.653686523,0.092662861,-0.682875391,0.022090539
0.877197266,0.017822266,0.651000977,0.08080528,-0.646370032,0.037145669
0.863037109,0.015869141,0.655273438,0.063218757,-0.686739097,0.049935868
0.869506836,0.016235352,0.635498047,0.033774652,-0.835824856,0.074183954
0.905029297,0.009155273,0.579833984,0.022583228,-0.886053033,0.084709222
0.930419922,0.024536133,0.56652832,0.021250916,-0.900042314,0.059128824
0.916137695,0.051879883,0.549560547,0.029511253,-0.770941241,0.046072162
0.916870117,0.042724609,0.584350586,0.05069502,-0.695265897,0.054199268
0.959228516,0.020385742,0.586303711,0.036172815,-0.592677842,0.050735256
0.966308594,-0.021850586,0.495849609,0.041102371,-0.502746754,0.029817951
0.950073242,0.000366211,0.486450195,0.057223351,-0.451585958,0.019292683
0.952636719,0.029296875,0.525146484,0.111182003,-0.405887642,-0.006420946
0.935180664,0.017211914,0.495849609,0.128502064,-0.447988714,-0.020543458
0.962158203,-0.005737305,0.510131836,0.125437746,-0.603336341,-0.030002876
0.964599609,-0.029663086,0.510620117,0.11944234,-0.650899894,-0.018678221
0.950927734,0.021484375,0.494873047,0.128901758,-0.643172482,0.006635715
0.965087891,0.024414063,0.484130859,0.149552601,-0.598806479,0.009566802
0.974853516,0.034301758,0.493774414,0.153816,-0.553774319,0.009566802
0.973144531,0.022949219,0.479003906,0.117976796,-0.561501731,0.014229896
0.979980469,0.013061523,0.470581055,0.105053366,-0.542849358,0.017693908
0.998046875,0.010375977,0.440673828,0.108250916,-0.406953492,0.033681657
0.991821289,0.017944336,0.390014648,0.139959951,-0.311426693,0.028485639
0.986083984,0.062011719,0.424926758,0.193385679,-0.152748285,-0.003889553
0.990478516,0.035400391,0.442626953,0.199647547,-0.125702343,-0.011350502
0.978393555,0.028808594,0.406738281,0.161010487,-0.23055533,-0.017612371
0.997192383,0.028442383,0.388061523,0.10225551,-0.365118883,-0.035065663
0.993530273,0.025268555,0.367675781,0.089865005,-0.379374625,-0.044658312
0.990234375,0.009887695,0.39453125,0.118110028,-0.34446804,-0.050653718
0.982543945,0.025634766,0.405517578,0.125437746,-0.329679373,-0.048921712
0.993774414,0.024658203,0.416137695,0.120774653,-0.321818729,-0.046257087
0.994140625,0.025024414,0.384033203,0.105852754,-0.319020873,-0.02400747
0.989501953,0.034912109,0.373046875,0.098258573,-0.319420567,-0.011883427
0.988647461,0.037963867,0.353393555,0.090930855,-0.360056095,-0.016146827
0.999145508,0.024902344,0.348754883,0.094128404,-0.394429756,-0.027338251
1.00402832,0.027099609,0.359008789,0.081071743,-0.449054564,-0.056515893
1.010375977,0.010742188,0.360839844,0.069613856,-0.45504997,-0.053718037
1.006835938,0.020751953,0.346679688,0.065616919,-0.42280801,-0.02720502
1.01574707,0.037109375,0.329956055,0.062152907,-0.427870797,-0.018278527
1.006469727,0.047851563,0.335693359,0.056823657,-0.438795759,-0.014548052
1.006835938,0.047729492,0.368164063,0.050961482,-0.426804947,-0.012549583
1.022460938,0.026977539,0.307495117,0.060953826,-0.393230674,-0.011616965
1.017578125,0.024047852,0.293457031,0.082137593,-0.326082129,-0.02507332
0.990844727,0.008300781,0.295410156,0.096393336,-0.337273553,-0.030669032
1.002929688,0.010375977,0.288085938,0.09692626,-0.418011685,-0.015214208
1.022094727,0.024414063,0.2890625,0.093195786,-0.418677841,-0.000958466
1.029907227,0.026489258,0.264770508,0.125570977,-0.276919801,0.02115792
1.037963867,0.04675293,0.235107422,0.144756276,-0.169801884,0.013164046
1.027587891,0.031738281,0.272216797,0.147154438,-0.03617095,-0.004955403
1.027587891,0.037109375,0.273071289,0.117177409,-0.045363905,0.01036619
1.030761719,0.050292969,0.236450195,0.102921666,-0.07600709,0.015828671
1.031005859,0.040527344,0.254150391,0.097059492,-0.065082129,0.013164046
1.012695313,0.038574219,0.271972656,0.10545306,-0.035504793,0.015162515
1.010131836,0.031005859,0.266113281,0.109050303,-0.030308775,0.010899115
1.008666992,0.010375977,0.257324219,0.107185066,-0.066014747,0.020358533
1.015014648,0.024658203,0.247070313,0.08506868,-0.169935115,0.023822545
1.003173828,0.036254883,0.217407227,0.0625526,-0.228290398,0.037545363
0.998168945,0.04699707,0.228881836,0.031776184,-0.365518576,0.045006312
1.008422852,0.040405273,0.223144531,0.014456123,-0.411216892,0.044340156
1.034790039,0.020629883,0.241333008,-0.014721519,-0.394163293,0.060727599
1.034912109,0.015625,0.234863281,-0.023914475,-0.364452726,0.069121167
1.042114258,0.032226563,0.201171875,-0.038303449,-0.310360843,0.07485011
1.031860352,0.034790039,0.214477539,-0.039768992,-0.27891827,0.067122698
1.021484375,0.047241211,0.213012695,-0.035772055,-0.226025467,0.040076757
1.031738281,0.052734375,0.198120117,-0.038703142,-0.209238331,0.02648717
1.039550781,0.026611328,0.183105469,-0.036038518,-0.176463446,0.018226833
1.031616211,0.020874023,0.183105469,-0.028844031,-0.162207703,0.019026221
1.032348633,0.010375977,0.170166016,-0.008992576,-0.139425161,0.006635715
1.020263672,0.000854492,0.177001953,0.018186597,-0.121172481,-0.002157547
1.015991211,0.008178711,0.197021484,0.03137649,-0.132097443,-0.008419415
1.029052734,0.030273438,0.175415039,0.012857348,-0.194982588,-0.029869645
1.037719727,0.034545898,0.161010742,0.004064086,-0.200178607,-0.026805326
1.051879883,0.029785156,0.195800781,0.00339793,-0.087198515,-0.015080977
1.053344727,0.023803711,0.182250977,0.014989047,0.00672951,-0.012283121
1.038208008,0.02355957,0.175048828,0.039503596,0.112781577,-0.024673626
1.022949219,0.018188477,0.172241211,0.04536577,0.099591685,-0.024140701
1.028442383,0.024414063,0.165039063,0.044033458,0.003931654,-0.01321574
1.047729492,0.044311523,0.157958984,0.019385678,-0.033373093,-0.026672095
1.038208008,0.031005859,0.173339844,0.008593948,0.024449265,-0.035465357
1.026977539,0.025756836,0.177124023,0.011791498,0.055225682,-0.033600119
1.002563477,0.029907227,0.169921875,0.021117685,0.039904089,-0.025206551
0.98840332,0.03515625,0.182739258,0.015521972,-0.008059158,-0.025339783
1.00402832,0.039428711,0.184448242,0.000866536,-0.095059158,-0.011750196
1.021362305,0.036499023,0.183227539,-0.008859345,-0.10491827,-0.002823703
1.023071289,0.031494141,0.161987305,-0.033640355,-0.144088254,-0.003356628
1.021240234,0.007202148,0.167724609,-0.006594413,-0.17153389,0.004903709
1.022338867,0.004272461,0.151245117,0.01418966,-0.143821792,0.002372315
1.0390625,-0.012207031,0.152099609,0.040036521,-0.053091317,-0.013615433
1.032714844,0.00402832,0.171142578,0.045099308,-0.025778913,0.000640309
1.022216797,0.022094727,0.172607422,0.049096245,-0.048561455,0.018759758
1.002075195,0.025390625,0.169189453,0.064417838,-0.085066815,0.025954245
1.05090332,0.045776367,0.121948242,0.05495842,-0.085999434,0.000107384
1.041137695,0.038452148,0.165771484,0.059221819,0.073878055,-0.019344377
1.040649414,0.048828125,0.169067383,0.061353519,0.175666723,-0.024940089
1.030395508,0.038574219,0.155395508,0.058822126,0.253606999,-0.033200426
1.003662109,0.031982422,0.164916992,0.054691957,0.156747887,-0.044791544
1.005859375,0.027099609,0.161743164,0.050428557,0.10119046,-0.048788481
1.027587891,0.027587891,0.182128906,0.036039584,0.074144518,-0.037863519
1.036621094,0.042724609,0.161499023,0.026580165,0.086268561,-0.034932432
1.033447266,0.041015625,0.152709961,0.004330548,0.086668254,-0.02400747
1.021362305,0.038452148,0.153808594,-0.004995639,0.069614656,-0.018544989
1.018310547,0.036254883,0.151123047,-0.013922132,0.041502864,-0.023474545
1.022216797,0.029541016,0.156982422,-0.016586757,0.04749827,-0.031868113
1.017456055,0.012329102,0.161010742,-0.020983387,0.060022006,-0.028537332
1.01940918,0.033203125,0.151611328,-0.028311106,0.038172083,-0.026405633
1.017578125,0.04284668,0.151855469,-0.042433617,-0.035371562,-0.027471482
1.021362305,0.045043945,0.166015625,-0.049361642,-0.050426692,-0.04012845
1.033569336,0.03918457,0.155151367,-0.052159498,-0.018984119,-0.044125388
1.03894043,0.034057617,0.167724609,-0.053625041,0.078008224,-0.052119262
1.031738281,0.025146484,0.190795898,-0.049361642,0.109184334,-0.052785418
1.028686523,0.027954102,0.20300293,-0.043233005,0.063086325,-0.041327531
1.021606445,0.032226563,0.19909668,-0.047762867,-0.007659464,-0.029869645
1.021850586,0.030029297,0.188842773,-0.05455766,-0.148218423,-0.011750196
1.030151367,0.024291992,0.176025391,-0.052559191,-0.18339147,-0.00362309
1.026489258,0.033935547,0.171020508,-0.034706205,-0.200844763,-0.002956934
1.046630859,0.031005859,0.13671875,-0.0265791,-0.207772787,-0.003090165
1.044677734,0.034545898,0.111816406,-0.030309574,-0.215500199,-0.015613902
1.0390625,0.038330078,0.124633789,-0.032174812,-0.195648745,-0.020276995
1.038085938,0.04296875,0.134643555,-0.021116619,-0.083601271,-0.033067195
1.032958984,0.039672852,0.146362305,-0.007793495,-0.006726845,-0.038529675
1.01550293,0.044189453,0.149169922,0.030843565,0.146089388,-0.044125388
1.01159668,0.049560547,0.163696289,0.056557195,0.186591685,-0.034665969
1.009277344,0.041992188,0.158081055,0.061220288,0.159012818,-0.02294162
1.00012207,0.03503418,0.157714844,0.070413244,0.056824456,0.003304934
0.994140625,0.030395508,0.155273438,0.078007424,0.01312461,0.01462959
1.012329102,0.037597656,0.153442383,0.091863473,-0.021781976,0.034214582
1.021606445,0.043823242,0.149780273,0.091730242,-0.01472072,0.043940463
1.028198242,0.050537109,0.150634766,0.072678175,0.00459781,0.056464199
1.030395508,0.056152344,0.141967773,0.058422432,0.003265498,0.06299253
1.03527832,0.046386719,0.139526367,0.035906352,-0.004595145,0.056330968
1.034545898,0.038696289,0.145019531,0.027779247,-0.001530827,0.05113495
1.039794922,0.033447266,0.134765625,0.016721054,0.011659066,0.043141075
1.040161133,0.025390625,0.142333984,0.01525551,0.017254778,0.039010907
1.026733398,0.037597656,0.154541016,0.004996704,0.001000567,0.034481044
1.01953125,0.038452148,0.152587891,0.000333611,-0.020582894,0.02861887
1.017578125,0.028930664,0.133056641,-0.005661795,-0.076806478,0.021424383
1.030517578,0.037475586,0.126220703,-0.023115087,-0.102386876,-0.002290778
1.029052734,0.04284668,0.135253906,-0.018851688,-0.089596677,-0.009751727
1.03112793,0.024414063,0.150024414,-0.008726113,-0.054290398,-0.015880364
1.040039063,0.02331543,0.153076172,0.009793029,0.024449265,-0.027604714
1.041625977,0.021850586,0.127441406,0.009260104,0.043767795,-0.039195832
1.039428711,0.018066406,0.120483398,0.002065617,0.054293063,-0.050387256
1.033691406,0.029907227,0.13684082,-0.000332545,0.064551868,-0.054117731
1.019165039,0.026367188,0.161499023,0.010459185,0.096260904,-0.040927838
1.018310547,0.018798828,0.159790039,0.041768527,0.04216902,-0.018944683
1.023071289,0.014282227,0.143920898,0.045765464,-0.007792695,-0.012283121
1.022338867,0.007446289,0.149169922,0.06148675,-0.081069878,0.005836328
1.020507813,0.009521484,0.162597656,0.062019675,-0.082535421,0.018626527
1.01574707,0.013916016,0.164916992,0.075342799,-0.071477228,0.019559146
1.014892578,0.019287109,0.137207031,0.104653672,-0.05016023,0.022756695
1.01965332,0.026489258,0.130493164,0.107451528,-0.056288867,0.023156389
1.02331543,0.041870117,0.14440918,0.091064086,-0.068013216,0.027952714
1.037597656,0.036254883,0.120239258,0.064284607,-0.05016023,0.033814888
1.040405273,0.028930664,0.121826172,0.046964545,-0.022048438,0.030484107
1.032836914,0.034790039,0.125244141,0.031243259,0.062953094,0.018093602
1.015991211,0.032470703,0.134155273,0.033374959,0.095994441,0.012098196
1.013793945,0.035522461,0.139892578,0.049229476,0.117577902,-0.001624622
1.044799805,0.021972656,0.11730957,0.046165158,0.118110827,-0.013482202
1.056396484,0.017944336,0.110107422,0.03031064,0.106120015,-0.026272401
1.040039063,0.034423828,0.11340332,0.009659798,0.088933185,-0.033200426
1.031860352,0.029663086,0.122314453,0.005796092,0.087867335,-0.038129982
1.024536133,0.032836914,0.142089844,0.010325954,0.10665294,-0.032800732
1.029418945,0.032592773,0.150634766,0.021250916,0.106919403,-0.028137639
1.025878906,0.033081055,0.135742188,0.033374959,0.039237933,-0.015880364
1.026367188,0.036132813,0.145141602,0.033108496,-0.014587489,-0.016280058
1.03125,0.035888672,0.133789063,0.02058476,-0.064815666,-0.017745602
1.039794922,0.030273438,0.130615234,0.011391804,-0.048961149,-0.021342845
1.042114258,0.029907227,0.131347656,-0.001664858,0.017654472,-0.027737945
1.022460938,0.028808594,0.119506836,-0.000599008,0.040303783,-0.028537332
1.022705078,0.029907227,0.123657227,0.004996704,0.042968407,-0.032134576
1.032470703,0.021606445,0.132324219,-0.001398395,0.023116953,-0.034532738
1.034423828,0.036010742,0.127929688,-0.009259038,0.010060291,-0.037863519
1.029174805,0.040649414,0.120727539,-0.015787369,-0.01045732,-0.042659844
1.025024414,0.044921875,0.125610352,-0.010191657,-0.012056095,-0.045590931
1.017333984,0.043945313,0.122558594,-0.003663326,0.00886121,-0.048522018
1.021728516,0.039306641,0.137573242,-0.002863939,0.041369633,-0.044125388
1.019165039,0.035400391,0.146850586,-0.001664858,0.050562588,-0.036930901
1.01550293,0.02331543,0.135620117,0.010858879,0.026847427,-0.02080992
1.012451172,0.033813477,0.132324219,0.024981391,-0.011389939,-0.00575479
1.01550293,0.043701172,0.134887695,0.02711309,-0.012988714,-0.001757853
1.031005859,0.052001953,0.143676758,0.014989047,0.016455391,-0.009751727
1.034790039,0.041137695,0.135253906,0.002598542,0.033109296,-0.008819109
1.030273438,0.039550781,0.126586914,-0.008193188,0.014856616,0.001706159
1.025268555,0.031494141,0.124389648,-0.009925195,-0.018451195,0.006902178
1.026000977,0.029663086,0.118774414,0.001132998,-0.067879985,0.000640309
1.035888672,0.029663086,0.127563477,0.006995173,-0.066680904,-0.003223397
1.038696289,0.037231445,0.116088867,0.008327485,-0.009524701,-0.015480671
1.028686523,0.03894043,0.127685547,0.002198848,0.022317565,-0.023208083
1.026367188,0.039550781,0.124755859,0.008993642,0.038838239,-0.020010533
1.023803711,0.039916992,0.133178711,0.014456123,0.031910214,-0.025473014
1.02355957,0.038452148,0.134399414,0.018719522,0.028845896,-0.03253427
1.028198242,0.040161133,0.131835938,0.020851222,0.019120015,-0.018145296
1.036132813,0.048950195,0.138793945,0.020185066,0.016188928,-0.01428159
1.03527832,0.052612305,0.133911133,0.017653672,0.009260904,-0.018145296
1.04309082,0.043945313,0.127075195,-0.000332545,0.014856616,-0.025473014
1.041748047,0.040893555,0.130371094,-0.007660263,0.023649878,-0.026672095
1.036132813,0.036987305,0.123168945,-0.013655669,0.029778515,-0.028404101
1.0234375,0.02355957,0.109863281,-0.005395332,0.023516646,-0.032933963
1.022949219,0.022705078,0.113891602,0.023116153,0.026314502,-0.043992156
1.021484375,0.043701172,0.129272461,0.033374959,0.046032726,-0.046123856
1.018310547,0.047363281,0.129394531,0.042034989,0.087201179,-0.047456169
1.013427734,0.051025391,0.129272461,0.044832845,0.090665192,-0.041993688
1.01184082,0.046508789,0.132202148,0.049229476,0.0604217,-0.021476077
1.002319336,0.044311523,0.138916016,0.050828251,0.037239464,-0.008019721
1.005615234,0.046630859,0.146240234,0.04749747,0.006463047,0.015295746
1.017578125,0.043457031,0.128051758,0.037371896,0.007662129,0.030350876
1.018920898,0.045288086,0.124389648,0.034174346,0.008461516,0.035013969
1.008544922,0.04699707,0.127075195,0.038304515,0.005930123,0.038211519
1.006958008,0.043334961,0.137573242,0.046031927,0.005930123,0.038611213
1.024291992,0.035888672,0.133789063,0.051894101,0.006329816,0.034481044
1.025024414,0.041625977,0.124267578,0.053492876,0.006329816,0.034747507
1.029663086,0.042480469,0.104248047,0.056157501,0.005130735,0.029018564
1.039916992,0.044433594,0.107910156,0.053492876,0.012458453,0.024089008
1.046875,0.031860352,0.126708984,0.040036521,0.040836708,0.005969559
1.048706055,0.029052734,0.135375977,0.035373427,0.051495207,0.000240616
1.047973633,0.029785156,0.12902832,0.037505127,0.03470807,0.002505547
1.022705078,0.045043945,0.136474609,0.038171283,-0.02338075,-0.001224928
1.031494141,0.051269531,0.114379883,0.035106965,-0.043098974,0.003837859
1.040893555,0.036987305,0.119506836,0.025647547,-0.045097443,-0.001358159
1.036743164,0.032226563,0.125488281,0.010858879,-0.005527764,-0.010151421
1.028198242,0.040283203,0.117553711,0.002198848,0.045233338,-0.025606245
1.02746582,0.042358398,0.114746094,-0.004595945,0.0561583,-0.031868113
1.018554688,0.041503906,0.110107422,-0.013922132,0.044700414,-0.040528144
1.012207031,0.032958984,0.127807617,-0.012989513,0.039904089,-0.041860456
1.012939453,0.025024414,0.128051758,-0.002464245,0.056557994,-0.036131513
1.015625,0.029663086,0.134155273,0.016054897,0.075876524,-0.020543458
1.016235352,0.039550781,0.131103516,0.019252447,0.070813737,-0.014148358
1.023803711,0.048095703,0.139770508,0.01312381,0.047231807,-0.006687409
1.026123047,0.048828125,0.13269043,0.006329017,0.036706539,-0.002823703
1.023803711,0.046508789,0.129272461,-0.008193188,0.027513583,0.004104322
1.021118164,0.042602539,0.133056641,-0.00726057,0.033908683,0.008900646
1.024414063,0.034301758,0.140380859,0.010059492,0.054426294,0.011964965
1.034057617,0.029907227,0.135498047,0.02058476,0.058689694,0.01356374
1.037353516,0.031982422,0.124755859,0.022316766,0.053093982,0.000240616
1.045898438,0.032592773,0.114990234,0.016454591,0.049363507,-0.00682064
1.030029297,0.032470703,0.119750977,0.01099211,0.043767795,-0.008419415
1.011474609,0.036376953,0.137084961,0.018053366,0.018986784,-0.011483734
1.02746582,0.04296875,0.130493164,0.023782309,0.001666723,-0.018012064
1.039916992,0.038330078,0.121826172,0.020318297,0.004464579,-0.033067195
1.041870117,0.038696289,0.122802734,0.021117685,0.023383415,-0.034665969
1.030029297,0.046264648,0.133789063,0.032042646,0.059222619,-0.02294162
1.023071289,0.048217773,0.145141602,0.038038052,0.060954625,-0.016413289
1.025634766,0.045288086,0.134033203,0.043500533,0.029378821,-0.00575479
1.035644531,0.041015625,0.125976563,0.039503596,0.000600873,0.000373847
1.026733398,0.039794922,0.122314453,0.037238665,-0.039235268,0.009566802
1.031005859,0.040527344,0.115600586,0.036838971,-0.037902956,0.014363127
1.03515625,0.042358398,0.115722656,0.031509721,-0.002863139,0.016894521
1.02722168,0.036865234,0.119873047,0.02711309,0.013790766,0.015961902
1.02746582,0.038696289,0.121582031,0.013523504,0.011925528,0.020491764
1.028686523,0.046142578,0.103271484,0.003531161,-6.52833E-05,0.017027752
1.023193359,0.043212891,0.123779297,0.000866536,-0.001664058,0.011964965
1.01940918,0.035766602,0.133300781,0.006861942,0.033109296,0.005303403
1.014160156,0.033813477,0.122070313,0.012191191,0.042701945,0.004637247
1.005126953,0.041015625,0.113891602,0.01525551,0.017787703,0.007968028
1.001464844,0.036010742,0.12890625,0.01738721,-0.001397596,0.012631121
1.018310547,0.030395508,0.112060547,0.02924479,-0.01685242,0.01036619
1.021484375,0.03112793,0.122802734,0.03883744,-0.008059158,0.000373847
1.034912109,0.029174805,0.123901367,0.040969139,0.042968407,-0.01534744
1.039672852,0.029663086,0.112060547,0.036972202,0.061887244,-0.015880364
1.032470703,0.035400391,0.135009766,0.032309109,0.062020475,-0.015613902
1.025512695,0.032104492,0.138427734,0.02711309,0.007262435,-0.011883427
1.03125,0.028808594,0.135498047,0.025647547,-0.023780444,-0.012283121
1.036010742,0.026733398,0.131835938,0.014589354,-0.027777381,-0.010551115
1.040649414,0.032714844,0.114501953,0.005529629,-0.003396064,-0.01001819
1.033691406,0.038330078,0.110595703,-0.001664858,0.031776983,-0.019477608
1.032104492,0.045654297,0.124145508,0.01205796,0.039104701,-0.033999813
1.025146484,0.039916992,0.110595703,0.019385678,0.04430072,-0.045990625
1.022949219,0.044677734,0.125610352,0.018186597,0.054692757,-0.04652355
1.020263672,0.056640625,0.139648438,0.004463779,0.071613124,-0.034665969
1.014892578,0.054443359,0.138061523,-0.001531626,0.0625534,-0.028404101
1.03125,0.035888672,0.123413086,-0.008193188,0.018453859,-0.018678221
1.033081055,0.029174805,0.115356445,-0.011523969,-0.000864671,-0.015613902
1.026611328,0.025146484,0.127685547,-0.012323357,0.008594747,-0.003489859
1.016967773,0.046142578,0.13684082,-0.007127338,0.025115421,0.006768946
1.010375977,0.050048828,0.122314453,0.01525551,0.025515115,0.018360064
1.011352539,0.037109375,0.120849609,0.028845097,0.002332879,0.016894521
1.016967773,0.036743164,0.116210938,0.03883744,-0.044431286,0.017960371
1.028198242,0.042236328,0.115478516,0.037371896,-0.041899893,0.021557614
1.026123047,0.045654297,0.12512207,0.048296858,-0.003396064,0.037012438
1.029541016,0.039428711,0.110961914,0.066949231,0.024049571,0.041275838
1.039550781,0.031738281,0.118408203,0.068814469,0.032443139,0.036612744
1.03918457,0.032348633,0.118408203,0.066549538,0.040703476,0.038477982
1.045288086,0.039306641,0.108764648,0.058155969,0.032309908,0.040343219
1.047485352,0.041503906,0.097167969,0.03457404,0.000600873,0.030617338
1.052490234,0.030883789,0.080444336,0.011525035,-0.01365487,0.015562208
1.042358398,0.026855469,0.083129883,0.008061023,0.011659066,0.009033878
1.024169922,0.041503906,0.122070313,0.016987516,0.107452328,-0.004022784
1.017333984,0.049194336,0.12487793,0.023249384,0.148887244,-0.005488328
1.01184082,0.049682617,0.128295898,0.015921666,0.140360444,-0.006687409
1.007202148,0.043457031,0.130004883,0.013523504,0.098259372,-0.005888021
1.017700195,0.025634766,0.125366211,0.012590885,0.021917871,-0.012283121
1.027709961,0.023803711,0.125610352,0.012990579,0.018054165,-0.014814515
1.036865234,0.024169922,0.130249023,0.014989047,0.057090919,-0.014015127
1.038085938,0.025878906,0.128417969,0.016188129,0.074277749,-0.01108404
1.025390625,0.030883789,0.138671875,0.01951891,0.062020475,-0.00468894
1.015380859,0.033325195,0.145507813,0.029910946,0.009127672,-0.010817577
1.0234375,0.026977539,0.138183594,0.039636827,-0.003795758,-0.01214989
1.05065918,0.025146484,0.116821289,0.045765464,-0.003262833,-0.012816046
1.052368164,0.031494141,0.109008789,0.040436214,0.020452328,-0.027604714
1.041137695,0.027099609,0.116943359,0.038171283,0.033375758,-0.035198894
1.039916992,0.034179688,0.118896484,0.041901758,0.036306845,-0.047056475
1.038452148,0.023803711,0.120483398,0.042701146,0.034841302,-0.05078695
1.027099609,0.032470703,0.123291016,0.03777159,0.032576371,-0.051453106
1.014892578,0.044799805,0.135986328,0.035906352,0.030977596,-0.052918649
1.009033203,0.056396484,0.138061523,0.031642953,0.030844365,-0.045857394
1.005615234,0.053344727,0.125488281,0.023249384,0.018320628,-0.033600119
1.010986328,0.044555664,0.120483398,0.025381084,0.007262435,-0.023874239
1.01574707,0.035766602,0.121704102,0.023649078,-0.002996371,-0.011350502
1.020507813,0.038452148,0.135620117,0.023515847,0.010193522,-0.008286184
1.024780273,0.040771484,0.137329102,0.021384147,0.045633032,0.003038472
1.02734375,0.041503906,0.126953125,0.022050303,0.04536657,0.004770478
1.019042969,0.041015625,0.127075195,0.024315234,0.001267029,0.015162515
1.011962891,0.041870117,0.127807617,0.023515847,-0.017118882,0.022490233
1.031616211,0.036865234,0.135620117,0.017253979,-0.000598208,0.031683188
1.043701172,0.036621094,0.123168945,0.009659798,0.037639158,0.033948119
1.036743164,0.034179688,0.118408203,0.009260104,0.04110317,0.035147201
1.035888672,0.036010742,0.118652344,0.008593948,0.023516646,0.03075057
1.035766602,0.036865234,0.12109375,0.010459185,0.011392603,0.026753633
1.026855469,0.033813477,0.135620117,0.016854285,0.008461516,0.016761289
1.027954102,0.033691406,0.129638672,0.023382616,0.015922466,0.012631121
1.035644531,0.024291992,0.105957031,0.029111559,0.021118484,0.006768946
1.034301758,0.020019531,0.109130859,0.043633764,0.022983721,-0.009884959
1.031982422,0.01965332,0.106567383,0.058822126,0.026847427,-0.026805326
1.030273438,0.023071289,0.109130859,0.066949231,0.036440077,-0.033733351
1.024047852,0.037841797,0.11328125,0.070546475,0.076409449,-0.033466888
1.014404297,0.052734375,0.134277344,0.070546475,0.089332879,-0.025473014
1.012451172,0.058837891,0.128417969,0.057756276,0.056291531,-0.00255724
1.018066406,0.053466797,0.116088867,0.047897164,0.016588622,0.00397109
1.015991211,0.042480469,0.117431641,0.02604724,-0.033639556,0.013164046
1.018676758,0.041748047,0.11340332,0.022183534,-0.025778913,0.019026221
1.021728516,0.036865234,0.122192383,0.01418966,0.031110827,0.031150263
1.020996094,0.029052734,0.126464844,0.011658266,0.058023538,0.0458057
1.010009766,0.034057617,0.122924805,0.00992626,0.02178464,0.048203862
1.013793945,0.036376953,0.120117188,0.004597011,0.004731041,0.051801106
1.02734375,0.037475586,0.131591797,-0.008059957,0.003665191,0.052866956
1.025878906,0.033203125,0.123413086,-0.014188594,0.006329816,0.05553158
1.026367188,0.02746582,0.132080078,-0.000599008,0.005796891,0.052600493
1.040283203,0.019897461,0.119750977,0.013257041,0.000600873,0.050602025
1.057861328,0.007080078,0.106811523,0.026180472,-0.016053032,0.037278901
1.057983398,0.014282227,0.107666016,0.023915541,-0.010324089,0.011565271
1.052612305,0.018188477,0.124755859,0.027646015,0.007662129,-0.003223397
1.043334961,0.021484375,0.10949707,0.047364239,0.057090919,-0.02720502
1.035400391,0.014038086,0.103149414,0.066816,0.085868867,-0.032800732
1.030639648,0.018066406,0.113769531,0.073610793,0.087600873,-0.03040257
1.015991211,0.03515625,0.130249023,0.082004362,0.073878055,-0.025339783
1.014526367,0.041625977,0.13659668,0.09252963,0.067482956,-0.024673626
1.030395508,0.034790039,0.129150391,0.103854285,0.063086325,-0.023074851
1.03515625,0.028564453,0.114624023,0.098525035,0.066683568,-0.020276995
1.027587891,0.026977539,0.121459961,0.084802218,0.064551868,-0.004822172
1.0234375,0.03112793,0.120361328,0.074809875,0.052161363,-0.002157547
1.029296875,0.03112793,0.107055664,0.046698083,0.017254778,-0.003889553
1.040161133,0.034301758,0.10534668,0.03137649,0.011659066,-0.004289247
1.03527832,0.035400391,0.111572266,0.001399461,0.035107764,-0.003889553
1.023803711,0.03527832,0.124633789,-0.0180523,0.060554931,-0.010417884
1.002441406,0.033935547,0.134277344,-0.010724582,0.041236401,-0.007620028
0.997802734,0.029052734,0.140136719,0.002731773,0.024049571,-0.000825234
1.019165039,0.018066406,0.122680664,0.03244234,0.002865804,0.018360064
1.020751953,0.013183594,0.118530273,0.050828251,0.003665191,0.031416726
1.032836914,0.010986328,0.115112305,0.07427695,0.022317565,0.043540769
1.036254883,0.012207031,0.103515625,0.078007424,0.026714196,0.045406006
1.039306641,0.024047852,0.136474609,0.067082463,0.02178464,0.033814888
1.038330078,0.031616211,0.130859375,0.063485219,0.013391072,0.024089008
1.037109375,0.037963867,0.115356445,0.049229476,0.000867335,0.000640309
1.029541016,0.030517578,0.120483398,0.040036521,0.00353196,-0.006287715
1.022460938,0.030639648,0.125366211,0.025381084,0.028579433,-0.019077914
1.01940918,0.034423828,0.126708984,0.026446934,0.044966876,-0.024940089
1.028076172,0.023803711,0.135009766,0.030044178,0.052028132,-0.03040257
1.032958984,0.020141602,0.137451172,0.02924479,0.052161363,-0.041460763
1.034545898,0.017456055,0.132568359,0.023382616,0.04536657,-0.04865525
1.043823242,0.0234375,0.12890625,0.011125342,0.04216902,-0.056649124
1.037597656,0.026245117,0.129150391,-0.002331014,0.044833645,-0.076767041
1.030395508,0.031494141,0.124267578,-0.000199314,0.049896432,-0.083428603
1.034057617,0.024414063,0.126098633,0.002731773,0.060821394,-0.085959997
1.028198242,0.022705078,0.123535156,0.008194254,0.069614656,-0.074368879
1.022338867,0.028686523,0.139404297,0.010725648,0.060288469,-0.067174392
1.023681641,0.030639648,0.138061523,0.022316766,0.042302251,-0.052252493
1.026855469,0.026855469,0.120117188,0.027246322,0.030044977,-0.044258619
1.023193359,0.031616211,0.112915039,0.037371896,0.005930123,-0.026672095
1.010009766,0.043212891,0.126342773,0.045632233,0.00459781,-0.01321574
1.012207031,0.041748047,0.129150391,0.050428557,0.015123078,-0.006021253
1.017333984,0.038208008,0.121582031,0.060420901,0.031510521,0.007701565
1.016601563,0.038208008,0.112426758,0.061753213,0.024582496,0.016361596
1.015136719,0.03894043,0.1015625,0.062419369,0.005530429,0.019559146
1.029785156,0.038696289,0.122070313,0.0625526,0.01205876,0.019159452
1.027709961,0.039916992,0.119873047,0.066549538,0.056691225,0.010765884
1.033813477,0.036132813,0.127075195,0.062286138,0.078407917,0.00823449
1.037353516,0.033691406,0.129150391,0.037638358,0.088533492,0.008101259
1.026855469,0.031494141,0.120361328,0.022050303,0.071080199,0.011165577
1.027587891,0.032836914,0.127929688,-0.021649544,0.026181271,0.013164046
1.032470703,0.036010742,0.139282227,-0.045364705,0.018986784,0.01036619
1.034667969,0.039916992,0.135498047,-0.074542346,0.033508989,0.001306466
1.028930664,0.036132813,0.135498047,-0.078006358,0.047365038,0.001306466
1.014404297,0.036987305,0.150878906,-0.073076803,0.051228744,0.003038472
1.028320313,0.040649414,0.145874023,-0.068014015,0.038305314,-0.010817577
1.038085938,0.034545898,0.152099609,-0.069346328,0.038838239,-0.016812983
1.038574219,0.029174805,0.140014648,-0.069079865,0.032309908,-0.022142233
1.043212891,0.013793945,0.117797852,-0.064283541,0.012858147,-0.027871176
1.036499023,0.011962891,0.114990234,-0.043366236,-0.020049969,-0.03799675
1.036743164,0.007446289,0.116088867,-0.0244474,-0.017518576,-0.043592463
1.037475586,0.010253906,0.112792969,0.009659798,0.019519709,-0.052518956
1.032714844,0.023681641,0.124755859,0.023249384,0.036440077,-0.054650656
1.027832031,0.028564453,0.127319336,0.047231008,0.032976064,-0.050120793
1.022949219,0.033813477,0.127563477,0.066149844,-0.010190858,-0.042393381
1.027954102,0.03125,0.12097168,0.075742493,-0.021382282,-0.039861988
1.036254883,0.033081055,0.132080078,0.089865005,0.008994441,-0.035198894
1.041870117,0.035522461,0.129272461,0.088132999,0.037239464,-0.03040257
1.036254883,0.036010742,0.123168945,0.072678175,0.068015881,-0.026272401
1.023803711,0.041870117,0.14440918,0.058422432,0.060022006,-0.021076383
1.016235352,0.047973633,0.142944336,0.032309109,-0.001930521,-0.010817577
1.006469727,0.047973633,0.127319336,0.021117685,-0.031641087,-0.005488328
1.011230469,0.043457031,0.131225586,0.012191191,-0.028443538,0.004770478
1.011962891,0.043945313,0.111328125,0.01418966,0.013657534,0.006768946
1.01574707,0.037353516,0.109985352,0.01632136,0.032576371,0.005836328
1.009033203,0.028076172,0.128417969,0.027912478,0.044700414,0.009566802
1.009643555,0.029663086,0.124389648,0.034840502,0.044833645,0.012231427
1.009643555,0.033203125,0.126831055,0.047897164,0.040836708,0.017827139
1.020996094,0.055664063,0.129394531,0.035240196,0.032842833,0.01462959
1.030395508,0.052368164,0.131347656,0.02058476,0.028979127,0.01036619
1.02746582,0.050292969,0.120605469,-0.003396864,0.007528897,0.006502484
1.026733398,0.035400391,0.114379883,-0.004462714,-0.007393002,0.003837859
1.030517578,0.033813477,0.128295898,0.000999767,0.002999035,0.003571397
1.029907227,0.03137207,0.129516602,0.005929323,0.02604804,0.002772009
1.030639648,0.034423828,0.123046875,0.014322891,0.046832113,0.000507078
1.027954102,0.035400391,0.128051758,0.011924729,0.036173614,-2.58469E-05
1.019775391,0.037109375,0.123779297,0.009793029,-0.013255176,0.005303403
1.029296875,0.030029297,0.126953125,0.013523504,-0.032174012,0.005170172
1.032104492,0.026123047,0.127563477,0.030843565,-0.014321026,-0.005488328
1.035888672,0.027832031,0.116699219,0.039237133,0.014856616,-0.009884959
1.037597656,0.03894043,0.113891602,0.040569446,0.068149112,-0.015613902
1.03515625,0.043701172,0.11706543,0.033241727,0.064285406,-0.006420946
1.029052734,0.043212891,0.113769531,0.026446934,0.040303783,-0.001624622
1.024169922,0.039306641,0.133789063,0.020451528,0.008328285,0.003837859
1.021850586,0.03918457,0.144897461,0.021517378,0.008594747,0.006502484
1.029541016,0.037231445,0.136230469,0.02604724,0.016188928,0.009833265
1.030151367,0.040771484,0.121582031,0.024448466,0.016588622,0.008101259
1.039428711,0.038574219,0.120849609,0.01845306,0.017121547,0.005303403
1.033691406,0.036254883,0.116210938,0.006728711,0.022584028,-0.004422478
1.026855469,0.025878906,0.126953125,0.004463779,0.044167489,-0.012949277
1.01574707,0.022705078,0.118652344,0.009659798,0.051894901,-0.015214208
1.016723633,0.032836914,0.125732422,0.027512784,0.047897963,-0.014414821
1.021240234,0.030273438,0.122192383,0.030044178,0.039637626,-0.015480671
1.019775391,0.029174805,0.110961914,0.025381084,0.030044977,-0.010417884
1.010375977,0.055786133,0.116210938,0.006195786,0.032309908,-0.002956934
1.002197266,0.060058594,0.12878418,0.003264698,0.038571776,0.002772009
1.012939453,0.052856445,0.12890625,0.009393335,0.047897963,0.013830202
1.01574707,0.040405273,0.129760742,0.012324423,0.046832113,0.018892989
1.029296875,0.023071289,0.130371094,0.014322891,0.042035789,0.028885332
1.046264648,0.025146484,0.12121582,0.010725648,0.035907152,0.031017032
1.032592773,0.023193359,0.117431641,0.003131467,0.012191991,0.026220708
1.035400391,0.01574707,0.111694336,0.00886041,-0.001797289,0.021557614
1.036743164,0.019775391,0.115966797,0.015388741,0.004064885,0.01462959
1.029907227,0.030395508,0.116455078,0.036039584,0.057357381,0.000373847
1.033325195,0.02722168,0.120727539,0.04536577,0.089332879,-0.006687409
1.033081055,0.028198242,0.10925293,0.057356582,0.094928591,-0.016546521
1.033203125,0.036987305,0.108398438,0.058555663,0.079207305,-0.023607776
1.040771484,0.035400391,0.111572266,0.052560257,0.046299188,-0.034532738
1.03918457,0.034057617,0.135375977,0.045765464,0.070547274,-0.034133044
1.036254883,0.03112793,0.142578125,0.042034989,0.086801486,-0.031601651
1.030395508,0.031005859,0.130126953,0.03883744,0.085602404,-0.018278527
1.02746582,0.032104492,0.118408203,0.03563989,0.063885712,-0.013482202
1.01965332,0.029663086,0.11340332,0.029644484,0.00353196,-0.006687409
1.024047852,0.032348633,0.127563477,0.032042646,-0.006993308,-0.011883427
1.026611328,0.035766602,0.130737305,0.030577103,0.019253247,-0.017212677
1.025146484,0.036254883,0.120605469,0.034041115,0.077874992,-0.024407164
1.021606445,0.042114258,0.12512207,0.035773121,0.085335942,-0.029203489
1.025634766,0.037841797,0.125488281,0.035373427,0.068548806,-0.036131513
1.028808594,0.046020508,0.13293457,0.030177409,0.061887244,-0.034799201
1.034790039,0.051391602,0.131958008,-0.016053832,0.066683568,-0.030002876
1.03503418,0.048461914,0.126831055,-0.040968074,0.075077136,-0.023074851
1.02331543,0.029174805,0.140014648,-0.044965011,0.044833645,-0.011217271
1.020996094,0.020751953,0.13671875,-0.038836374,0.029112358,-0.004289247
1.025878906,0.016113281,0.139404297,-0.015787369,0.027513583,0.005569865
1.034790039,0.014892578,0.142211914,0.002065617,0.060821394,0.004903709
1.033569336,0.021606445,0.132080078,0.016454591,0.067749418,0.001306466
1.042114258,0.025756836,0.128051758,0.018985985,0.056691225,-0.014814515
1.042480469,0.031005859,0.134643555,0.012324423,0.051495207,-0.027871176
1.038696289,0.040283203,0.140991211,0.007394867,0.05722415,-0.034532738
1.026000977,0.056396484,0.147583008,0.006995173,0.070414043,-0.036131513
1.017822266,0.049316406,0.149414063,0.012990579,0.071613124,-0.028004407
1.004272461,0.047851563,0.153320313,0.022183534,0.045100107,-0.01214989
1.000610352,0.037963867,0.151855469,0.02711309,0.018453859,-0.00468894
1.010498047,0.034790039,0.151000977,0.039503596,-0.023647213,0.008767415
1.015014648,0.027709961,0.149902344,0.043234071,-0.024579832,0.008500953
1.033081055,0.020141602,0.150390625,0.048829783,0.018853553,0.017294214
1.036865234,0.024902344,0.128051758,0.048963014,0.042835176,0.020225302
1.035522461,0.035522461,0.140014648,0.037904821,0.069214962,0.019026221
1.017211914,0.033203125,0.136352539,0.031909415,0.061087856,0.015162515
1.021362305,0.046875,0.151000977,0.015122279,0.010859678,0.010099727
1.016845703,0.046386719,0.146118164,0.005662861,-0.038835574,-0.000958466
1.021606445,0.046875,0.130004883,0.000333611,-0.047229142,-0.008019721
1.034667969,0.038574219,0.133056641,-0.009259038,-0.00832562,-0.011616965
1.039916992,0.036499023,0.13659668,-0.010857813,0.023516646,-0.014681283
1.036621094,0.041503906,0.136962891,-0.011923663,0.0604217,-0.026672095
1.031005859,0.037475586,0.1328125,-0.0159206,0.058689694,-0.033600119
1.032958984,0.03137207,0.131225586,-0.0137889,0.041236401,-0.040661375
1.028564453,0.025024414,0.127441406,-0.008193188,0.029512052,-0.040261682
1.031005859,0.029418945,0.146606445,0.003930855,0.019120015,-0.035598588
1.020996094,0.028564453,0.138793945,0.011924729,0.018986784,-0.033200426
1.024658203,0.03137207,0.134399414,0.023116153,0.032176677,-0.025872708
1.025390625,0.04296875,0.135375977,0.020984453,0.056025069,-0.016546521
1.001831055,0.041625977,0.132202148,0.028978328,0.055358913,-0.01001819
1.005981445,0.052978516,0.140869141,0.037505127,0.049097044,0.000640309
1.0078125,0.041137695,0.142700195,0.045898695,0.050162894,0.010499421
1.016235352,0.038208008,0.154174805,0.049362708,0.055758607,0.024089008
1.019897461,0.034179688,0.146118164,0.050428557,0.052427825,0.024621933
1.012451172,0.029052734,0.129760742,0.056157501,0.024049571,0.040343219
1.011474609,0.026367188,0.122192383,0.055358113,0.016455391,0.043141075
1.015869141,0.030029297,0.140380859,0.049362708,0.040969939,0.043407538
1.028442383,0.047851563,0.133911133,0.03031064,0.132633032,0.040209988
1.026855469,0.046142578,0.127319336,0.01632136,0.164874993,0.031283495
1.03137207,0.061767578,0.129516602,-0.019384613,0.178064885,0.016361596
1.028686523,0.049316406,0.135131836,-0.037104368,0.155149112,0.016228364
1.004882813,0.039672852,0.149291992,-0.050960417,0.073211899,0.017693908
0.999145508,0.02734375,0.157836914,-0.044432086,0.042568714,0.018759758
1.016235352,0.025024414,0.147094727,-0.034572974,0.042435482,0.014229896
1.033203125,0.024536133,0.140380859,-0.033373893,0.056025069,0.00930034
1.054931641,0.016967773,0.143188477,-0.0244474,0.093196585,-0.009485265
1.062255859,0.025268555,0.147583008,-0.022715394,0.128369633,-0.030269338
1.048828125,0.029785156,0.145019531,-0.026845562,0.140760138,-0.036397976
1.052734375,0.030151367,0.161621094,-0.02124985,0.132766264,-0.04226015
1.037353516,0.03137207,0.158081055,-0.032441274,0.121175146,-0.0411943
1.038208008,0.021728516,0.172363281,-0.025380018,0.07334513,-0.033067195
1.010375977,0.024047852,0.16418457,-0.00512887,0.00140026,-0.013082508
1.007202148,0.022094727,0.170166016,0.017920135,-0.039368499,-0.010684346
1.011474609,0.020507813,0.155517578,0.063351988,-0.068279679,0.011831734
1.022949219,0.022705078,0.165039063,0.083603136,-0.045497136,0.018360064
1.032714844,0.046875,0.164916992,0.106918604,0.039237933,0.014762821
1.045166016,0.050170898,0.160400391,0.108250916,0.070414043,0.001306466
1.053466797,0.038574219,0.14831543,0.111581697,0.083737167,-0.026938557
1.047119141,0.031738281,0.169311523,0.113846628,0.066017412,-0.035731819
1.01184082,0.039428711,0.176147461,0.115978328,0.054559525,-0.026672095
1.066162109,0.023925781,0.145141602,0.057356582,0.088799954,-0.011217271
1.048095703,0.009399414,0.141357422,0.026313703,0.109317565,-0.004289247
1.026977539,0.012451172,0.145507813,0.00233208,0.141159832,-0.003756322
1.017089844,0.020019531,0.118164063,-0.016453525,0.161544212,-0.007620028
0.997314453,0.025390625,0.162841797,-0.0265791,0.182195054,-0.013348971
