AccelX,AccelY,AccelZ,GyroX,GyroY,GyroZ
1.032958984,0.0546875,0.082641602,0.014432407,0.178689473,-0.011691041
0.998168945,0.055419922,0.138549805,0.002841289,0.102747666,0.004296708
0.998901367,0.044921875,0.145996094,-8.97979E-05,0.003890086,0.016021057
1.008056641,0.037719727,0.137329102,-0.003420579,-0.026886331,0.019751531
1.026000977,0.033935547,0.105224609,-0.009682447,-0.015561675,0.019751531
1.031738281,0.035888672,0.093261719,-0.007017822,0.031735415,0.0153549
1.024414063,0.038696289,0.090332031,0.01363302,0.11713664,0.00669487
1.012207031,0.045898438,0.103881836,0.025357369,0.123931434,0.002165008
1.012817383,0.053100586,0.123046875,0.036948487,0.071438325,-0.005162711
1.022460938,0.054321289,0.123168945,0.037881106,0.034533271,-0.005162711
1.031494141,0.049072266,0.114379883,0.035616175,0.004289779,-0.002631317
1.044921875,0.041137695,0.096679688,0.039346649,0.024540928,-0.001698698
1.046386719,0.041870117,0.095092773,0.048672836,0.122599121,-0.004496554
1.05871582,0.06262207,0.094360352,0.026956144,0.207067728,-0.003031011
1.0546875,0.063964844,0.089233398,0.005239452,0.239176457,-0.004629786
1.041625977,0.042480469,0.114257813,-0.008749828,0.312320408,0.013756126
1.032714844,0.037231445,0.138793945,-0.002621191,0.301928371,0.02494755
1.012817383,0.030273438,0.14855957,0.012167476,0.190813516,0.038537136
1.021606445,0.023925781,0.139160156,0.021760126,0.157239244,0.038803599
1.03918457,0.042358398,0.119018555,0.045342055,0.198940622,0.030942956
1.033325195,0.047119141,0.124145508,0.056666711,0.215594527,0.025746937
1.013305664,0.045043945,0.146972656,0.071322147,0.140985032,0.009226263
1.006958008,0.036865234,0.155883789,0.078516634,0.081563899,0.002964395
1.026000977,0.030883789,0.163085938,0.088109283,0.026672628,-0.004496554
1.021850586,0.044433594,0.173706055,0.081447721,-0.014762288,0.003763783
1.015625,0.048706055,0.182495117,0.069323679,-0.060727066,0.003897014
1.033081055,0.038085938,0.164916992,0.043210355,-0.086307464,-0.004496554
1.045776367,0.034545898,0.152099609,0.033884168,-0.03328143,-0.008893185
1.042114258,0.039550781,0.135253906,0.01789642,0.044792077,-0.017020291
1.014282227,0.050292969,0.156616211,0.010701933,0.029204021,-0.023015697
1.014648438,0.054443359,0.154052734,-0.00461966,-0.053799041,-0.035672665
1.020996094,0.039916992,0.142456055,-0.000223029,-0.076048659,-0.044066233
1.029541016,0.029174805,0.137573242,0.005772377,-0.062858766,-0.043666539
1.024291992,0.020996094,0.133056641,0.025357369,-0.050867954,-0.035939127
1.028198242,0.025268555,0.121826172,0.034683556,-0.036212518,-0.034740046
1.048583984,0.041381836,0.114624023,0.049738686,0.026406165,-0.036738515
1.043945313,0.035888672,0.122924805,0.050538074,0.072770637,-0.041668071
1.042114258,0.03918457,0.125366211,0.044942361,0.075435262,-0.041001914
1.022094727,0.043823242,0.137573242,0.038280799,0.059847207,-0.029544028
1.011108398,0.046630859,0.146972656,0.038547262,0.043326533,-0.021416922
1.011962891,0.048950195,0.133911133,0.039213418,0.040795139,-0.005162711
0.999633789,0.049194336,0.133422852,0.041878043,0.055184113,0.004296708
1.004272461,0.041870117,0.14074707,0.032152162,0.022275997,0.013089969
1.018554688,0.048706055,0.123901367,0.026689682,0.012816579,0.016820444
1.023071289,0.040527344,0.135131836,0.036548793,0.076634343,0.017353369
1.013549805,0.041381836,0.142944336,0.044409437,0.101415354,0.0153549
1.014404297,0.050292969,0.149658203,0.037747874,0.041727758,0.025746937
1.012451172,0.05480957,0.139282227,0.035616175,0.006288248,0.028011868
1.024414063,0.059326172,0.132568359,0.039080187,0.02041076,0.015754594
1.034423828,0.052856445,0.128662109,0.041211887,0.050387789,0.011890888
1.03527832,0.053466797,0.124755859,0.034683556,0.071038631,0.002831164
1.035644531,0.059204102,0.123779297,0.025224138,0.06131275,-0.007560873
1.031982422,0.055297852,0.130004883,0.002708058,0.063177988,-0.013822741
1.032104492,0.033569336,0.130004883,-0.005818741,0.061712444,-0.015554747
1.030761719,0.039550781,0.129150391,-0.008083672,0.070638937,-0.008893185
1.023803711,0.043457031,0.129882813,0.005372683,0.06983955,-0.011158116
1.025756836,0.041015625,0.129516602,0.01150132,0.053985032,-0.01688706
1.044189453,0.035400391,0.148071289,0.016430876,0.043992689,-0.012890123
1.041992188,0.026367188,0.141723633,0.022026588,0.04838932,-0.007560873
1.038085938,0.031982422,0.145141602,0.035616175,0.043859458,-0.003297473
1.04284668,0.039916992,0.151245117,0.03721495,0.033067727,-0.006894717
1.045898438,0.039794922,0.142700195,0.029087844,0.012416885,-0.011158116
1.048706055,0.037475586,0.133178711,0.027355838,0.023608309,-0.014355666
1.04296875,0.051879883,0.123901367,0.028554919,0.079165737,-0.017686447
1.016235352,0.058105469,0.146606445,0.030020463,0.048655783,-0.025014165
1.006835938,0.056640625,0.152587891,0.025224138,-0.002238551,-0.029011103
1.025390625,0.05871582,0.129394531,0.015631489,-0.023422319,-0.032874809
1.034790039,0.045654297,0.118041992,0.01683057,0.025740009,-0.034473584
1.030883789,0.035400391,0.120361328,0.024824444,0.140318876,-0.033141271
1.021728516,0.038696289,0.129394531,0.023758594,0.148845676,-0.033674196
1.005126953,0.040649414,0.153930664,0.023758594,0.072637406,-0.027412328
1.005859375,0.050292969,0.135986328,0.025890294,0.033467421,-0.022216309
1.014160156,0.053344727,0.125732422,0.034683556,0.024807391,-0.011424579
1.021362305,0.049194336,0.137084961,0.037348181,0.040395446,-0.005962098
1.022094727,0.053344727,0.143066406,0.034683556,0.044792077,0.009226263
1.011962891,0.052734375,0.134887695,0.03081985,0.023741541,0.016687213
1.016601563,0.050537109,0.135131836,0.029221075,-0.020491231,0.029077718
1.035766602,0.051879883,0.127807617,0.029887231,-0.016361063,0.031342649
1.039794922,0.040283203,0.125732422,0.022426282,0.042527146,0.026946018
1.042358398,0.034667969,0.125732422,0.019628426,0.080364818,0.023615237
1.025634766,0.031738281,0.123291016,0.01150132,0.107810453,0.023748469
1.017089844,0.05847168,0.140380859,0.002841289,0.047456701,0.017619832
1.017456055,0.055541992,0.130249023,0.004173602,0.023741541,0.005762251
1.015258789,0.052368164,0.123291016,0.03508325,0.016280591,-0.022349541
1.010009766,0.054321289,0.130615234,0.036015868,-0.015428444,-0.04912902
1.019775391,0.032714844,0.134521484,0.023891825,0.024274466,-0.06525
1.028808594,0.042480469,0.146606445,0.0233589,0.059181051,-0.062718607
1.036743164,0.04296875,0.129394531,0.054002086,0.056516426,-0.047130551
1.027709961,0.041748047,0.092651367,0.090507446,0.043726227,-0.041135146
1.026245117,0.071166992,0.168457031,0.07052276,0.078099887,-0.065649694
1.029785156,0.059326172,0.18762207,-0.039792708,0.039729289,-0.061253063
1.04309082,0.068969727,0.174194336,-0.07763038,-0.001972089,-0.039802833
1.045410156,0.07800293,0.169067383,-0.109072953,0.018412291,0.009093032
1.043457031,0.053710938,0.150878906,-0.110405265,0.061579213,0.05186026
1.038208008,0.051269531,0.152587891,-0.099213841,0.049588401,0.076108346
1.02722168,0.052856445,0.159057617,-0.063241406,-0.040875611,0.1172768
1.035766602,0.029907227,0.127563477,-0.038726858,-0.061526453,0.13446363
1.053710938,0.035644531,0.114868164,-0.002354729,0.111807391,0.119008806
1.057128906,0.026489258,0.109619141,0.01683057,0.143782888,0.104619832
1.050170898,0.028930664,0.122436523,0.062528885,0.104879366,0.076374809
1.041259766,0.026367188,0.126831055,0.099433939,0.081297437,0.055723966
1.018066406,0.043334961,0.142211914,0.126213418,0.025606778,0.047197167
1.016845703,0.038818359,0.140869141,0.126746343,0.022542459,0.028678025
1.018310547,0.045043945,0.145874023,0.1231491,0.071438325,0.010158882
1.016967773,0.05456543,0.162963867,0.06945691,0.065176456,-0.019285222
1.020996094,0.047973633,0.166015625,0.026289988,0.034266809,-0.024348009
1.0234375,0.028320313,0.17199707,-0.057246,0.056782888,-0.021017228
1.007324219,0.047485352,0.17590332,-0.101612003,0.052519489,-0.011824273
0.999023438,0.057617188,0.173706055,-0.13132257,0.004822704,-0.010891654
1.004882813,0.07019043,0.178710938,-0.198204653,0.025473547,-0.010891654
1.015991211,0.061279297,0.198364258,-0.231512463,0.071305094,0.001232389
1.03112793,0.048828125,0.205688477,-0.315181682,0.014415354,0.095293645
1.044677734,0.033081055,0.197509766,-0.330902968,0.016547054,0.13126608
1.048950195,0.047973633,0.192016602,-0.343693167,0.103813516,0.172834227
1.04699707,0.059448242,0.204711914,-0.365809553,0.10101566,0.183226264
1.044067383,0.054931641,0.192260742,-0.411374638,0.057715507,0.209339587
0.725219727,-0.616821289,-0.977294922,-0.418968818,0.055450576,0.224261486
0.350830078,-0.399291992,-1.994873047,1.652377279,-0.965500421,-0.015954441
1.247070313,0.047485352,0.125366211,2.060997494,0.147779826,-0.183292879
1.249023438,0.133178711,0.319213867,1.648780036,0.609426074,-0.148919219
1.233276367,0.1484375,0.590087891,0.676858136,0.61222393,0.105685682
1.158691406,0.251953125,0.502441406,-0.146244469,0.629277529,0.367351838
1.112915039,0.233276367,0.424682617,-0.491579844,0.699890087,0.450621364
1.005737305,0.177001953,0.386352539,-1.024638038,0.579049351,0.518302834
0.962768555,0.123779297,0.373291016,-1.208363919,0.455144298,0.488725498
0.892211914,0.071166992,0.274536133,-1.37277127,0.315651189,0.327382466
0.860961914,0.009033203,0.199829102,-1.365043858,0.09235563,0.113413094
0.873901367,-0.055664063,0.164916992,-1.318412924,-0.023688781,-0.003697167
0.924194336,-0.088867188,0.090332031,-1.255661009,-0.037944524,-0.125736983
0.934936523,-0.081054688,0.072998047,-1.069137273,0.103946747,-0.321320445
0.953979492,-0.069702148,0.088623047,-0.828121958,0.061712444,-0.386603752
0.977294922,-0.076782227,0.145996094,-0.323442019,-0.045938398,-0.325317382
0.997070313,-0.055664063,-0.205078125,-0.073766674,-0.206881737,-0.239116769
1.03125,-0.069946289,-0.005004883,0.3798857,-0.401266117,-0.117743109
1.057739258,-0.073364258,0.119628906,0.557616175,-0.303074693,-0.138793645
1.078857422,-0.032836914,0.19934082,0.552153694,-0.275229363,-0.188222435
1.305908203,0.219726563,0.592773438,0.022825976,-0.16318189,-0.211004977
1.240112305,0.12890625,0.309692383,-0.52115718,0.152442919,-0.058321976
1.173461914,0.005615234,-0.028442383,-0.442683979,0.299130515,0.076907734
1.138549805,0.014526367,-0.016113281,-0.3203777,0.341764512,0.116477412
1.013549805,-0.028076172,0.19921875,-0.258691636,0.400785952,0.021483538
0.935424805,-0.08215332,0.255981445,-0.274279691,0.423302031,-0.128135146
1.05847168,-0.092651367,0.201171875,-0.221786582,0.318449045,-0.237784457
1.124267578,-0.052490234,0.119018555,-0.161699293,0.243439856,-0.193951379
1.012817383,0.074584961,0.113647461,-0.076830992,0.307390852,-0.119608346
1.010009766,0.079101563,0.188964844,-0.073100518,0.332704788,-0.152916156
1.025146484,0.015991211,0.131469727,-0.025536965,0.311121327,-0.182360261
1.020629883,0.010742188,0.137329102,0.004440064,0.259161143,-0.184758423
0.981445313,0.01953125,0.154541016,0.057066404,0.1621688,-0.181960567
1.026000977,0.099609375,0.160888672,0.081980646,0.141251495,-0.13719487
1.044433594,0.105957031,0.177978516,0.122616175,0.12566344,0.034273737
0.96472168,0.048461914,0.172729492,0.134873449,0.139785951,0.059454441
0.981445313,0.057250977,0.197631836,0.146064873,0.148445982,0.066515697
0.961547852,0.062011719,0.179443359,0.148596267,0.123664971,0.058655054
0.970825195,0.069213867,0.177368164,0.201755532,0.03759759,0.072777565
0.940063477,0.009399414,0.210083008,0.22840178,-0.005969026,0.058655054
0.963623047,0.022705078,0.224121094,0.265706527,-0.083509608,0.022416156
0.997558594,0.034179688,0.208496094,0.277031183,-0.112021094,-0.003963629
1.05078125,0.025878906,0.189575195,0.25851204,-0.009299807,-0.063384763
1.092285156,0.025634766,0.191650391,0.219342055,0.185484267,-0.092695636
1.10168457,0.03137207,0.169677734,0.139803005,0.661386258,-0.122539434
1.087890625,0.147338867,0.268066406,0.080914796,0.886946749,-0.129867152
1.098266602,0.175048828,0.279785156,0.064394123,1.647297439,-0.132265314
1.143310547,-0.059936523,0.200561523,-0.104143397,2.546475082,-0.181560873
1.055664063,-0.049804688,0.350463867,-0.185414454,2.904733888,-0.179828867
0.939697266,0.063598633,0.368041992,-0.228847838,2.991067731,-0.157179556
0.949707031,0.064453125,0.420043945,-0.2397728,3.059415358,-0.042334227
0.892578125,0.046020508,0.514648438,-0.225650288,3.087260687,0.043599923
0.867797852,-0.0234375,0.531982422,-0.231246,3.10791153,0.280218607
0.843383789,-0.040405273,0.490600586,-0.22365182,3.133225465,0.41478216
0.815551758,-0.012084961,0.543945313,-0.119464989,3.308158084,0.69083729
0.825561523,0.040649414,0.681152344,-0.069236812,3.475762985,0.768377872
0.858398438,0.061157227,0.714599609,-0.103344009,3.873591469,0.743996555
0.859008789,0.025268555,0.727050781,-0.173956567,4.040263751,0.67897971
0.773193359,0.034790039,0.743530273,-0.246834055,4.237179525,0.632215545
0.636962891,0.053588867,0.813842773,-0.279875403,4.33110755,0.635146632
0.584716797,0.049682617,0.889648438,-0.344092861,4.359485804,0.65752948
0.602661133,-0.121337891,0.927246094,-0.399250595,4.321381669,0.664590736
0.569335938,-0.119384766,0.904174805,-0.499840181,3.944204027,0.579189511
0.521484375,-0.100952148,0.936279297,-0.537944316,3.534517962,0.454218607
0.463134766,-0.048706055,0.997192383,-0.553932065,3.361184118,0.404256892
0.317504883,-0.006347656,1.138916016,-0.5050362,3.015315817,0.355094564
0.278076172,-0.056030273,1.099243164,-0.508633443,2.871292846,0.344302834
0.235351563,-0.130859375,1.065917969,-0.564190871,2.721274469,0.32351876
0.246704102,-0.12878418,1.098388672,-0.553132678,2.658389324,0.271825039
0.245239258,-0.202026367,1.140869141,-0.579645695,2.649329599,0.161243109
0.157592773,-0.17175293,1.181640625,-0.565389952,2.614955939,0.022949081
0.086181641,-0.145751953,1.15246582,-0.566855495,2.600566965,-0.02008461
-0.015014648,-0.154907227,1.088989258,-0.547137272,2.49797891,-0.034340352
-0.037475586,-0.199707031,1.157714844,-0.503703887,2.361816582,-0.027145865
-0.096679688,-0.177734375,1.111938477,-0.37300404,2.189415357,0.075975115
-0.160644531,-0.244750977,1.053222656,-0.369939722,2.205536337,0.113279862
-0.1484375,-0.293945313,1.123046875,-0.386593627,2.235779828,0.156713247
-0.231689453,-0.234863281,1.025024414,-0.411507869,2.27241842,0.167638208
-0.280151367,-0.20690918,1.02722168,-0.449345541,2.430830365,0.23758461
-0.271728516,-0.212158203,1.008789063,-0.433624255,2.556067731,0.279152757
-0.318847656,-0.288452148,0.973022461,-0.465599753,2.613890089,0.253439127
-0.430664063,-0.309936523,1.008789063,-0.682766675,2.815202494,0.169236983
-0.487304688,-0.270141602,0.779052734,-0.76497035,2.830657318,0.162975115
-0.381225586,-0.169921875,0.717651367,-1.029567594,2.97801107,-0.008626723
-0.658569336,-0.245117188,0.923828125,-1.052616599,3.192380136,-0.03194219
-0.724731445,-0.272705078,1.044555664,-0.927645695,3.242741545,0.101022588
-0.708984375,-0.368286133,0.82800293,-0.875152586,2.640936031,0.1151451
-0.711303711,-0.324829102,0.77734375,-0.841711545,2.250568496,0.142857198
-0.633911133,-0.350219727,0.916992188,-0.602028543,1.627445984,0.218532542
-0.611938477,-0.427001953,0.828491211,-0.386193933,1.503674161,0.197082313
-0.705444336,-0.336669922,0.906738281,0.041478349,1.192579214,0.432901609
-0.832641602,-0.339233398,0.701660156,-0.288935127,1.582147362,0.728808194
-0.749511719,-0.255004883,0.695922852,-0.361412922,1.932145831,0.920527949
-0.822631836,-0.274169922,0.605712891,-0.333567593,1.635706321,0.964361027
-0.890258789,-0.249145508,0.591918945,-0.363811085,1.39828825,0.967958271
-0.918701172,-0.192626953,0.642089844,-0.317579844,0.900136641,0.970889358
-0.886962891,-0.211425781,0.638793945,-0.23657525,0.703753793,0.961296709
-0.827514648,-0.252929688,0.594238281,-0.120530839,0.570389321,0.843120598
-0.780395508,-0.185546875,0.632080078,-0.049252126,0.600899275,0.754655055
-0.786010742,-0.158813477,0.624023438,0.140469161,0.709482736,0.646071594
-0.775390625,-0.190063477,0.58581543,0.347910203,0.845378601,0.628218607
-0.752197266,-0.228881836,0.514770508,0.431845884,0.909462828,0.614629021
-0.756713867,-0.194458008,0.501098633,0.562812194,1.01165119,0.600906203
-0.83190918,-0.120361328,0.524047852,0.629827508,1.037897744,0.609566234
-0.839477539,-0.117431641,0.479980469,0.717360433,0.988202491,0.598241578
-0.824951172,-0.14831543,0.478881836,0.800230264,0.97301413,0.519368684
-0.861206055,-0.114624023,0.417724609,0.828475287,0.999527147,0.465410031
-0.882568359,-0.065429688,0.42590332,0.871242516,1.028438326,0.387469756
-0.86706543,-0.078857422,0.375610352,0.892159821,1.128628219,0.337907734
-0.873657227,-0.105712891,0.330566406,0.88563149,1.192179521,0.317256892
-0.891357422,-0.107055664,0.366088867,0.844729499,1.219625156,0.212670368
-0.952392578,-0.001464844,0.323852539,0.830473756,1.157805861,0.144722435
-0.952514648,0.008422852,0.281005859,0.745338993,0.9494322,0.053858729
-0.947509766,0.005859375,0.227905273,0.684985241,0.884681817,0.029344181
-0.946777344,-0.061645508,0.176757813,0.580398717,0.723338785,0.000832695
-0.899780273,-0.086547852,0.164794922,0.482074062,0.580514895,-0.019551685
-0.861938477,-0.113769531,0.198242188,0.439706527,0.5993005,-0.009825804
-0.957519531,-0.010009766,0.217285156,0.416124598,0.654591465,-0.026879403
-0.963623047,-0.027832031,0.186767578,0.356703464,0.520694068,-0.017686447
-0.948364258,-0.074951172,0.180053711,0.269037308,0.530020255,-0.015421516
-0.985961914,-0.029174805,0.1796875,0.24025936,0.560263747,-0.004096861
-0.983276367,-0.036987305,0.197021484,0.233064873,0.54667416,-0.002897779
-1.005981445,-0.061523438,0.147583008,0.218542668,0.610625156,-0.008759954
-1.040405273,-0.035522461,0.170654297,0.215078656,0.61861903,-0.007427642
-1.05456543,-0.023193359,0.13659668,0.2016223,0.576118264,-0.012357198
-1.071044922,-0.028198242,0.083007813,0.177640677,0.516963593,-0.009292879
-1.099975586,-0.024414063,0.050292969,0.085178196,0.253831893,0.0238817
-1.115112305,-0.018066406,0.046386719,-0.011147991,-0.111754631,0.041468224
-1.085327148,-0.088134766,0.133300781,-0.028334821,-0.272031814,0.056923048
-1.083496094,-0.108032227,0.149536133,-0.009682447,-0.421517266,0.050261486
-1.112426758,-0.088745117,0.179199219,-0.008749828,-0.501722472,0.047730092
-1.134033203,-0.064941406,0.120483398,-0.035262845,-0.97935647,0.063717841
-1.100952148,-0.090087891,0.098999023,-0.051783519,-1.349739319,0.078106815
-1.020019531,-0.119262695,0.215820313,-0.057246,-1.845892459,0.04320023
-0.932739258,-0.091674805,0.342163086,0.127279268,-2.04573932,-0.069913094
-0.874145508,-0.058349609,0.436889648,0.255580953,-2.293282965,-0.171834993
-1.055786133,0.003051758,0.415161133,0.496196573,-2.712161985,-0.303334227
-1.03112793,-0.004760742,0.434082031,0.570006681,-2.78570563,-0.323851838
-0.978149414,-0.061889648,0.445678711,0.657672837,-2.738941465,-0.340106049
-0.976318359,-0.057128906,0.43762207,0.672195042,-2.700970561,-0.311861026
-0.933959961,-0.018554688,0.446655273,0.670596267,-2.64075004,-0.238583844
-0.884399414,-0.059936523,0.496948242,0.670463036,-2.629158922,-0.219265314
-0.807128906,-0.126098633,0.700195313,0.740009744,-2.714160454,-0.176498086
-0.769165039,-0.085693359,0.721069336,0.780778503,-2.835400883,-0.183692573
-0.811523438,-0.072387695,0.707519531,0.848326742,-3.27972707,-0.115211715
-0.826538086,-0.08215332,0.695556641,0.85019198,-3.507552492,-0.036072358
-0.778076172,-0.071166992,0.711303711,0.734946957,-3.837433044,0.06465046
-0.697387695,-0.060791016,0.752563477,0.662469162,-3.904848051,0.059454441
-0.543945313,-0.006103516,0.821289063,0.578267018,-3.957474391,-0.05339242
-0.503662109,0.0234375,0.805541992,0.56347835,-3.957074698,-0.08563438
-0.428100586,0.1015625,0.784912109,0.489934705,-3.518743916,-0.050061639
-0.361694336,0.106201172,0.80859375,0.421453847,-3.206849582,-0.069380169
-0.287353516,0.08996582,0.926879883,0.386547262,-2.832736258,-0.187289816
-0.271850586,0.0546875,1.010742188,0.499127661,-2.984486641,-0.209539434
-0.250488281,0.067749023,0.924560547,0.708833633,-3.66742998,-0.103753829
-0.247436523,0.076049805,0.958618164,0.753332868,-3.901650501,-0.058321976
-0.209716797,0.04675293,0.954711914,0.63862077,-3.809720945,-0.071511868
-0.104736328,0.104858398,1.066894531,0.564410969,-3.406962905,-0.116544028
0.048828125,0.149658203,0.985961914,0.574803005,-3.187531052,-0.094560873
0.104248047,0.181884766,0.974609375,0.637421688,-2.750399351,-0.027145865
0.182739258,0.085693359,1.107788086,0.590524292,-2.324325844,-0.030743109
0.195800781,0.039550781,1.118530273,0.508587079,-2.201619871,-0.070845712
0.123901367,0.11730957,1.110229492,0.394940831,-2.318863363,-0.090031011
0.158447266,0.151123047,1.067749023,0.405332867,-2.510583118,-0.034606815
0.254394531,0.137939453,1.005981445,0.453429345,-2.686448356,0.061319678
0.255004883,0.100219727,1.0703125,0.470882638,-2.605044068,0.119541731
0.268554688,0.125854492,1.153930664,0.447966864,-2.460354941,0.164973584
0.290283203,0.102783203,1.047729492,0.362565639,-2.799295217,0.143656585
0.349609375,0.087646484,1.030395508,0.358169008,-2.947048663,0.168037902
0.473754883,0.137817383,1.045410156,0.336452316,-2.954376381,0.162975115
0.459594727,0.150634766,1.034057617,0.292352775,-2.708964436,0.171102221
0.494995117,0.168701172,1.060546875,0.222539605,-2.722021097,0.183759189
0.418701172,0.184936523,1.009887695,0.18336962,-3.387377913,0.211338055
0.445800781,0.079467773,1.004272461,0.109959207,-4.37182355,0.286080781
0.631835938,-0.003662109,0.782836914,0.184169008,-4.37182355,0.374946019
0.720458984,0.026000977,0.735717773,0.410795348,-4.37182355,0.487259955
0.772094727,0.075561523,0.679443359,0.567475287,-4.37182355,0.474070062
0.740966797,0.092407227,0.639404297,0.848326742,-4.31173626,0.494587673
0.923583984,0.269897461,0.839355469,0.845262424,-4.336650502,0.537488132
1.022705078,0.230102539,0.595947266,0.748270081,-4.269368726,0.404656586
1.141723633,0.06652832,0.342407227,0.764124598,-4.010233963,0.390400843
1.068725586,0.143554688,0.373291016,0.780245578,-3.181668877,0.369616769
0.941894531,0.118408203,0.263916016,0.852590142,-2.659802108,0.334576953
0.981201172,0.099243164,0.247436523,0.854588611,-2.56773932,0.368151226
1.062255859,0.107788086,0.194824219,0.837268549,-2.419053256,0.394797474
1.071166992,0.11328125,0.029663086,0.842064874,-2.213077758,0.391066999
1.215454102,0.169433594,0.109008789,0.855121536,-1.726384036,0.228391654
1.113769531,0.166870117,0.149658203,0.829274675,-1.459788324,0.176298239
0.944824219,0.113769531,0.202026367,0.801829039,-1.183866424,0.182560107
0.939208984,0.19934082,-0.259155273,0.797032715,-1.096067037,0.161776034
1.16394043,0.117797852,-0.109375,0.676991367,-1.166812825,0.011491195
1.098022461,0.110717773,0.008789063,0.531502852,-1.095267649,-0.063251531
1.099487305,0.108520508,-0.052978516,0.489535011,-0.988682657,-0.057122894
1.130615234,0.10546875,-0.104736328,0.419322148,-0.603644371,-0.03407389
1.145385742,0.132446289,-0.079223633,0.332322147,-0.375019563,-0.038603752
1.121337891,0.119750977,-0.114868164,0.157256297,0.12033419,-0.072577718
1.125976563,0.095214844,-0.169555664,0.076118472,0.335236181,-0.086167305
1.114013672,0.08605957,-0.168334961,-0.061642631,0.674576151,-0.083369449
1.111816406,0.097900391,-0.129272461,-0.149974944,0.955960531,-0.057122894
1.128540039,0.108642578,-0.095581055,-0.191809553,1.210298969,-0.019285222
1.166870117,0.129638672,0.08581543,-0.339429768,2.17156237,0.023482006
1.198974609,0.106079102,0.080932617,-0.377533903,2.813204025,0.046131317
1.113037109,0.153930664,0.036499023,-0.349955036,3.9692515,0.164707121
0.997314453,0.249023438,0.166259766,-0.32144355,4.359485804,0.239449847
1.113037109,-0.026855469,0.314819336,-0.544472647,4.359485804,0.155114472
1.127197266,0.005493164,0.296508789,-0.619481835,4.359485804,0.102221669
0.981811523,0.075073242,0.364379883,-0.605092861,4.359485804,-0.108017228
0.98815918,0.134277344,0.433349609,-0.54367326,4.359485804,-0.207141271
0.91015625,0.089599609,0.574829102,-0.483852433,4.359485804,-0.390067765
0.803833008,0.141235352,0.571777344,-0.438154117,4.359485804,-0.505312788
0.754760742,0.125,0.622558594,-0.368207716,4.359485804,-0.699830399
0.592285156,0.185180664,0.808959961,-0.27734401,4.359485804,-0.809213248
0.522338867,0.204101563,0.863037109,-0.211794239,4.359485804,-0.81054556
0.380249023,0.18347168,0.894775391,-0.129990257,4.359485804,-0.776438362
0.327636719,0.112792969,0.920043945,-0.243769737,4.359485804,-0.758185683
0.144165039,0.100097656,1.035400391,-0.340095924,4.359485804,-0.739000384
0.069702148,0.097900391,1.016113281,-0.405778926,4.359485804,-0.554075422
0.087402344,0.105834961,1.00769043,-0.38153084,4.359485804,-0.47120559
-0.015136719,0.134277344,0.922607422,-0.371138803,4.359485804,-0.395663477
-0.061035156,0.096801758,0.948242188,-0.418302662,4.359485804,-0.406988132
-0.166748047,0.033325195,1.208618164,-0.479589033,4.359485804,-0.519302068
-0.20300293,-0.014160156,1.08972168,-0.529151054,4.260494992,-0.596576188
-0.317138672,0.023925781,1.043823242,-0.553665603,3.243940626,-0.643340353
-0.415161133,0.030151367,1.046630859,-0.575515526,2.808008007,-0.618026417
-0.501586914,-0.010253906,1.006958008,-0.622812616,2.120668037,-0.478000383
-0.478393555,-0.0234375,1.01550293,-0.677170963,1.734697133,-0.358491961
-0.449584961,-0.020141602,0.96484375,-0.687030074,1.713646597,-0.320254595
-0.428588867,0.007324219,1.02331543,-0.632005572,2.008753794,-0.374879403
-0.367797852,-0.047241211,1.000976563,-0.588172494,2.240043228,-0.431369449
-0.395385742,-0.09753418,0.966064453,-0.499440488,2.539547057,-0.538487367
-0.496337891,-0.099853516,0.872314453,-0.467864684,2.580981973,-0.539819679
-0.568115234,-0.076538086,0.815185547,-0.435489492,2.570323474,-0.455217841
-0.662353516,-0.016479492,0.772094727,-0.391656414,2.453612907,-0.258701761
-0.724609375,-0.037353516,0.804443359,-0.413106644,2.357419951,-0.198348009
-0.779663086,-0.112670898,0.82409668,-0.501305725,2.057516429,-0.091763017
-0.753295898,-0.114379883,0.752685547,-0.536478773,1.87938626,-0.041801302
-0.741699219,-0.116455078,0.760986328,-0.576048451,1.734830364,0.059854135
-0.682373047,-0.10925293,0.766113281,-0.514095924,1.837818113,0.088765314
-0.665771484,-0.129394531,0.762329102,-0.4159045,2.448683351,0.021083844
-0.749511719,-0.148803711,0.719970703,-0.413239875,2.786158083,-0.038070827
-0.850952148,-0.091308594,0.64050293,-0.432158711,2.853173397,-0.025280628
-0.928466797,-0.097045898,0.492919922,-0.551134209,2.350225464,0.07757389
-0.908691406,-0.118530273,0.524414063,-0.570452739,2.150645066,0.158978178
-0.926391602,-0.141967773,0.535888672,-0.590437425,2.1124077,0.224927642
-0.942504883,-0.133911133,0.519042969,-0.669576782,2.126530211,0.276488132
-0.901733398,-0.148193359,0.494628906,-0.711944316,1.65275992,0.367751532
-0.920166016,-0.110473633,0.507568359,-0.715141866,1.342064666,0.410918454
-0.889648438,-0.096435547,0.431030273,-0.697155649,1.00738779,0.485261486
-0.903198242,-0.146484375,0.350463867,-0.687163306,1.073204023,0.516437596
-0.936645508,-0.167114258,0.326538086,-0.682899906,1.561896213,0.58345291
-0.968017578,-0.109863281,0.436279297,-0.658785051,1.809839552,0.593178791
-0.969604492,-0.065551758,0.40222168,-0.573250595,1.879119797,0.597175728
-1.004882813,-0.058105469,0.353393555,-0.528751361,1.71511214,0.591446785
-1.002075195,-0.067871094,0.341552734,-0.474259783,1.233614437,0.639942956
-0.965209961,-0.075317383,0.304443359,-0.448679385,1.044692537,0.635812788
-1.004516602,-0.065917969,0.317504883,-0.354618129,0.94183802,0.640742344
-0.980224609,-0.03894043,0.29699707,-0.291599752,0.958625156,0.623821976
-0.939453125,-0.03112793,0.266235352,-0.113736046,0.85057462,0.604769909
-0.923950195,0.009643555,0.258544922,-0.033930533,0.789155018,0.607834227
-0.97265625,0.043701172,0.222290039,0.105829038,0.776098356,0.539086907
-0.975463867,0.032958984,0.147705078,0.134873449,0.817799735,0.522832696
-1.013549805,0.049804688,0.061523438,0.119152162,0.805142767,0.452486601
-0.993408203,0.059082031,0.139038086,0.119418625,0.557865584,0.332978178
-1.020874023,0.046508789,0.146850586,0.13074328,0.434759918,0.273157351
-1.033447266,0.003540039,0.07409668,0.130210355,0.262358693,0.190687213
-1.012573242,0.018310547,0.078369141,0.126213418,0.188815048,0.170302833
-0.990478516,0.043701172,0.134399414,0.165383403,0.025473547,0.111014931
-1.002197266,0.04296875,0.150878906,0.220674368,-0.157319715,-0.037804365
-1.053222656,0.040283203,0.084716797,0.210682025,-0.276428444,-0.097891654
-1.12097168,0.044799805,0.085449219,0.159121535,-0.628292151,-0.133597627
-1.054321289,-0.000488281,0.159790039,0.143000555,-1.285122167,-0.135995789
-1.01965332,-0.029907227,0.227905273,0.188832101,-1.629524924,-0.173433767
-1.061035156,-0.063720703,0.326171875,0.36696227,-2.054799044,-0.286280628
-1.068725586,-0.021850586,0.200561523,0.510985241,-2.370157391,-0.248975881
-1.080688477,0.038696289,0.182861328,0.535633021,-2.542691847,-0.235785988
-1.089477539,0.08203125,0.367553711,0.586527355,-3.001273777,-0.287612941
-0.899780273,-0.062133789,0.473632813,0.668464568,-3.32369338,-0.355694105
-0.906738281,-0.060180664,0.486694336,0.804227202,-3.836900119,-0.53888706
-1.053588867,0.012695313,0.40612793,0.83300515,-3.96053871,-0.576857964
-1.098632813,0.011352539,0.412353516,0.786640678,-4.073518802,-0.447890123
-0.808349609,-0.030273438,0.648803711,0.775449254,-4.136403947,-0.371148929
-0.636352539,-0.051391602,0.697265625,0.855787692,-4.216875617,-0.38846899
-0.6015625,-0.05480957,0.715454102,0.922003618,-4.174374851,-0.404856432
-0.677124023,-0.041503906,0.789306641,0.953179729,-3.833569338,-0.370882466
-0.713134766,0.03918457,0.937988281,0.928398718,-3.689812829,-0.344236218
-0.640869141,0.050415039,0.943115234,0.808890295,-3.884863365,-0.331446019
-0.509033203,0.057617188,0.740356445,0.779712653,-4.124146673,-0.269227029
-0.437988281,0.061157227,0.843505859,0.748669774,-4.37182355,-0.163174962
-0.371704102,0.024169922,1.037231445,0.712430877,-4.352904713,-0.162775268
-0.401245117,0.04309082,1.025512695,0.533101627,-4.37182355,-0.282683385
-0.453369141,0.040649414,1.056274414,0.421453847,-4.37182355,-0.329181088
-0.346069336,0.109130859,1.00402832,0.345645272,-4.37182355,-0.349165774
-0.199462891,0.137573242,0.944458008,0.351773909,-4.37182355,-0.391000383
0.004150391,0.108154297,0.945678711,0.278097033,-4.37182355,-0.530360261
-0.04675293,0.072387695,1.052978516,0.200689682,-4.37182355,-0.601372512
-0.084228516,0.049072266,1.023925781,0.094371152,-4.37182355,-0.628418454
0.120361328,0.120727539,0.861206055,0.114355838,-4.37182355,-0.565400077
0.258178711,0.157714844,0.750366211,0.295283863,-4.37182355,-0.446691042
0.392944336,0.155273438,0.89831543,0.41532521,-4.239924621,-0.366086141
0.368286133,0.137939453,0.970092773,0.391476818,-3.755096137,-0.351697167
0.44140625,0.142333984,0.944702148,0.324994429,-3.214843456,-0.350098393
0.46484375,0.163085938,0.896118164,0.297415562,-3.214976687,-0.335975881
0.656738281,0.158691406,0.841308594,0.300613112,-3.282658158,-0.285214778
0.712280273,0.141967773,0.738891602,0.324195042,-3.225235493,-0.270159648
0.729736328,0.176879883,0.814575195,0.352306834,-2.985019566,-0.186357198
0.648681641,0.194702148,0.838989258,0.34551204,-2.933992001,-0.172501149
0.650268555,0.166137695,0.803833008,0.384415563,-3.150892461,-0.113346478
0.776367188,0.164916992,0.643554688,0.476078656,-3.291584651,-0.070046325
0.833740234,0.142456055,0.579833984,0.62796227,-3.286788326,0.031475881
0.872192383,0.155029297,0.614379883,0.679256298,-3.191394758,0.078373277
0.862426758,0.145996094,0.652954102,0.753332868,-3.205517269,0.178829633
0.839111328,0.143432617,0.544311523,0.841132255,-3.604278372,0.200279862
0.873657227,0.139892578,0.461425781,0.870309897,-3.768818955,0.155913859
0.999267578,0.119506836,0.378295898,0.983556452,-3.237359536,0.209872512
1.053466797,0.111328125,0.316040039,1.121584017,-2.265570867,0.27089242
1.046630859,0.137207031,0.297729492,1.159288458,-1.876002719,0.303534074
1.131347656,0.217773438,0.274047852,1.068424752,-1.489898584,0.278353369
1.154663086,0.207397461,0.209594727,0.965037309,-1.421950651,0.257569296
1.117675781,0.182739258,0.159545898,0.863381873,-1.312168109,0.276488132
1.106079102,0.112060547,0.095581055,0.871109284,-1.168278369,0.288212481
1.059936523,0.10925293,0.234375,0.942254767,-0.773380972,0.30526608
0.961303711,0.169311523,0.263427734,1.005672838,-0.676655091,0.312327336
0.990600586,0.184936523,0.201171875,1.121051092,-0.589388629,0.297005743
1.027099609,0.189575195,0.186523438,1.135173603,-0.558745443,0.266762252
1.060058594,0.194824219,0.127807617,1.069623833,-0.451227832,0.205209418
1.072265625,0.196289063,0.114135742,1.021660586,-0.393272242,0.195217075
1.072998047,0.189331055,0.107299805,0.929597799,-0.2920165,0.190687213
1.078735352,0.188720703,0.084106445,0.881767784,-0.228198735,0.187356432
1.123657227,0.172363281,0.100219727,0.729484476,-0.048869486,0.131399311
1.099487305,0.123046875,0.019775391,0.552286926,0.225986564,0.091296708
1.041870117,0.048461914,0.060668945,0.417723373,0.352423011,0.071978178
1.062866211,0.071411133,0.06640625,0.359901014,0.319248432,0.062385528
1.052490234,0.099853516,0.138671875,0.254781565,0.272750729,-0.008893185
1.037963867,0.092529297,0.113037109,0.228002086,0.282876304,-0.033540965
1.021728516,0.103271484,0.060913086,0.19296227,0.284341847,-0.078439893
0.997192383,0.127685547,0.041748047,0.167115409,0.269153486,-0.076174962
1.009399414,0.149291992,0.133544922,0.100899483,0.253565431,-0.050061639
1.045166016,0.123779297,0.100952148,0.057066404,0.267954405,-0.050994257
1.073608398,0.126342773,0.071166992,-0.053781988,0.495513364,-0.097225498
1.119384766,0.192016602,0.088500977,-0.150374637,0.754115202,-0.134130551
1.083251953,0.185913086,0.101196289,-0.294797302,1.338334192,-0.14905245
0.996459961,0.189819336,0.287353516,-0.332501743,1.567758388,-0.08883193
1.044677734,0.156860352,0.276000977,-0.366076016,1.85473848,-0.095626723
1.054443359,0.040527344,0.182495117,-0.383129615,1.960257623,-0.103354135
1.056640625,0.081787109,0.201660156,-0.35901476,2.385931437,-0.172501149
1.06640625,0.112915039,0.273071289,-0.379665602,3.05968182,-0.234853369
1.08972168,0.115844727,0.306884766,-0.434556873,3.405949815,-0.26496363
1.048095703,0.142700195,0.38671875,-0.577780457,3.927150428,-0.289877872
0.95715332,0.138793945,0.458251953,-0.614152586,4.006423016,-0.357026417
1.013305664,0.107299805,0.552490234,-0.659584439,4.030804333,-0.548080016
1.020751953,0.122192383,0.544311523,-0.66611277,4.103548591,-0.604037137
0.723632813,0.166015625,0.642456055,-0.616151054,4.359485804,-0.549412328
0.740600586,0.163330078,0.662109375,-0.568987195,4.359485804,-0.536488898
0.693969727,0.127319336,0.705200195,-0.457206184,4.359485804,-0.49691922
0.611328125,0.157226563,0.763183594,-0.463867746,4.359485804,-0.463744641
0.549682617,0.194213867,1.026733398,-0.534347073,4.359485804,-0.433234687
0.568847656,0.103881836,0.940185547,-0.554997915,4.359485804,-0.472004978
0.501464844,0.131103516,0.866455078,-0.57165182,4.359485804,-0.472804365
0.206298828,0.095825195,0.994995117,-0.552066828,4.359485804,-0.44535873
0.111328125,0.06628418,1.110717773,-0.542740641,4.359485804,-0.38313974
0.095458984,0.002075195,1.060668945,-0.667978007,3.942072327,-0.267228561
0.040283203,0.059570313,1.055175781,-0.811867747,3.304161147,-0.215668071
0.006225586,0.155151367,1.185913086,-0.845974944,3.160271407,-0.270692573
-0.113647461,0.19128418,1.086669922,-0.846108176,3.215295909,-0.311461333
-0.118896484,0.1640625,1.193481445,-0.788019355,3.387430672,-0.411384763
-0.118652344,0.119262695,1.104125977,-0.733128084,3.457776767,-0.460946785
-0.150756836,0.003417969,1.065917969,-0.580045388,3.451781362,-0.480132083
-0.192260742,-0.059082031,1.138061523,-0.523555342,3.365047824,-0.485461333
-0.212402344,-0.051269531,1.13269043,-0.400183213,3.073271407,-0.543416923
-0.388427734,-0.032958984,1.014160156,-0.347023948,2.905266813,-0.527429174
-0.383300781,-0.067749023,0.954467773,-0.36434401,2.460807394,-0.428038668
-0.421020508,-0.067871094,1.056640625,-0.39871767,1.969450578,-0.271891654
-0.431152344,-0.065673828,0.996704102,-0.422699293,1.787989629,-0.190220904
-0.467163086,-0.068237305,1.000488281,-0.416570656,1.73229897,-0.011824273
-0.498168945,-0.00390625,0.979736328,-0.394987195,1.889378603,0.042534074
-0.515014648,0.008422852,1.050537109,-0.3289045,2.287073856,0.037071593
-0.503051758,-0.012695313,1.02355957,-0.291200059,2.353289783,0.049861792
-0.485839844,-0.089355469,0.907226563,-0.248699293,2.297998818,0.089831164
-0.499267578,-0.06652832,0.869140625,-0.192742172,2.222856398,0.113413094
-0.567260742,-0.049072266,0.879516602,-0.134253657,2.456543994,0.065316616
-0.628051758,0.013427734,0.864013672,-0.033530839,2.707951345,-0.023415391
-0.727172852,-0.011352539,0.714233398,0.002308364,2.584179523,-0.082170368
-0.777954102,-0.059692383,0.685791016,-0.06257525,2.167565433,-0.066182619
-0.755126953,-0.05871582,0.631347656,-0.088821804,1.793985035,-0.072311256
-0.808959961,-0.086547852,0.634277344,-0.068970349,1.742957469,-0.050328101
-0.800415039,-0.084106445,0.565307617,-0.016210778,2.003158082,0.015621363
-0.794555664,-0.081176758,0.523925781,0.046674368,2.593772172,0.051194104
-0.892211914,-0.078125,0.618774414,0.061596267,2.784159615,0.028811256
-0.845581055,-0.114501953,0.540649414,0.063594735,2.768971253,0.013089969
-0.909667969,-0.105712891,0.491333008,0.016164413,2.344096827,0.015887825
-0.922851563,-0.067871094,0.391723633,-0.048053044,1.893508771,0.085967458
-0.899414063,-0.085083008,0.399902344,-0.050850901,1.784658848,0.090097626
-1.039672852,-0.020629883,0.455444336,-0.093218435,1.58840923,-0.011424579
-1.004638672,-0.053100586,0.395385742,-0.10987234,1.399487331,-0.020217841
-1.01953125,-0.118286133,0.318359375,-0.153438956,0.9536956,-0.011691041
-0.97277832,-0.125854492,0.345825195,-0.162765143,0.788222399,-0.009692573
-0.922729492,-0.090576172,0.239501953,-0.167295005,0.725204022,-0.016220904
-0.918457031,-0.051269531,0.189208984,-0.147576781,0.93970632,-0.013822741
-0.994750977,-0.040649414,0.137084961,-0.174356261,1.306358694,0.089564702
-0.978393555,-0.064453125,0.173095703,-0.190344009,1.424668036,0.125537136
-0.970336914,-0.071166992,0.16015625,-0.201935127,1.547773702,0.191353369
-0.965576172,0.004638672,0.183105469,-0.189677853,1.572821175,0.212537137
-0.998901367,0.020385742,0.215454102,-0.174223029,1.431462829,0.195083844
-0.994873047,0.01953125,0.188964844,-0.154771268,1.165400041,0.181627489
-0.98449707,-0.003051758,0.168823242,-0.142513994,0.421703256,0.157246172
-0.97644043,-0.025756836,0.134765625,-0.153971881,0.148845676,0.142324273
-0.973876953,-0.012939453,0.072998047,-0.155837118,-0.004769945,0.157912328
-1.007324219,-0.003295898,0.075805664,-0.137051513,0.044392383,0.165772971
-1.009033203,-0.016113281,0.12512207,-0.069902968,0.134589933,0.125537136
-1.015136719,-0.051513672,0.165039063,-0.017409859,0.138453639,0.036405436
-1.05090332,-0.080810547,0.079345703,-0.033797302,0.068640469,0.00989242
-1.159179688,-0.040405273,0.054077148,-0.133720732,-0.39193993,-0.034207121
-1.161010742,-0.041503906,0.115478516,-0.167694699,-0.846924617,-0.064317381
-1.126342773,-0.099731445,0.163696289,-0.14957525,-1.944883271,-0.098824273
-1.199584961,-0.015258789,0.145019531,-0.155970349,-2.918004252,-0.128401608
-1.204833984,0.033447266,0.159057617,-0.1527728,-3.382448357,-0.132531777
-1.140258789,-0.073242188,0.215698242,-0.124794239,-3.850223243,-0.128268377
-1.079589844,-0.102661133,0.330688477,-0.036595158,-4.37182355,-0.21446899
-1.039672852,-0.118652344,0.455444336,0.00723792,-4.37182355,-0.285081547
-0.958007813,-0.099975586,0.424560547,0.16724864,-4.37182355,-0.378076953
-0.876220703,-0.00402832,0.491333008,0.277564108,-4.37182355,-0.388868684
-0.865844727,-0.022338867,0.497680664,0.478876512,-4.225135954,-0.323052451
-0.679077148,-0.055664063,0.677246094,0.568674368,-4.005837332,-0.301202527
-0.655883789,-0.106323242,0.724365234,0.657539606,-3.932027224,-0.276954441
-0.666259766,-0.089599609,0.733642578,0.643550326,-4.189429981,-0.21127144
-0.588012695,-0.030151367,0.784545898,0.684585548,-4.230731666,-0.164507274
-0.51574707,-0.036499023,0.85168457,0.755198105,-4.116685724,-0.147187213
-0.434570313,-0.081787109,0.970214844,0.707634552,-4.261641314,-0.21340314
-0.422973633,-0.055053711,0.942382813,0.580265486,-4.37182355,-0.215001915
-0.302368164,0.014404297,0.997924805,0.507787691,-4.37182355,-0.192885529
-0.192993164,0.029052734,0.981933594,0.498461505,-4.37182355,-0.149585375
-0.059204102,0.00390625,1.063720703,0.498727967,-4.37182355,-0.145321976
-0.027832031,0.003295898,1.111694336,0.461822913,-4.37182355,-0.17583193
0.08190918,0.05090332,1.043945313,0.439573296,-4.37182355,-0.220864089
0.127929688,0.094726563,1.02746582,0.429447722,-4.37182355,-0.348233155
0.16784668,0.106567383,1.005737305,0.417190448,-4.37182355,-0.413516463
0.17578125,0.021850586,1.017700195,0.305142974,-4.37182355,-0.345701762
0.231933594,0.003662109,0.989624023,0.256513572,-4.37182355,-0.33371095
0.416870117,0.068725586,0.889526367,0.239992898,-4.37182355,-0.355427642
0.505249023,0.085449219,0.873168945,0.250518166,-4.37182355,-0.357159648
0.571655273,0.120605469,0.906494141,0.244789222,-4.37182355,-0.364220904
0.603149414,0.147216797,0.897216797,0.194294582,-4.37182355,-0.385004978
0.726806641,0.101928711,0.754150391,0.162985241,-4.37182355,-0.394730858
0.769775391,0.123535156,0.688110352,0.164450784,-4.37182355,-0.371948316
0.869750977,0.159912109,0.554199219,0.259311428,-4.37182355,-0.319455207
0.980712891,0.095947266,0.479003906,0.299547262,-4.204218649,-0.267894717
1.0078125,0.111450195,0.461914063,0.338584016,-3.666763824,-0.163308193
1.021362305,0.097167969,0.523681641,0.356836696,-3.239091542,-0.067914625
1.022216797,0.114990234,0.311889648,0.458092439,-3.153690317,-0.095093798
1.066040039,0.095336914,0.196777344,0.498061811,-3.107725539,-0.157978944
1.072387695,0.079833984,0.244140625,0.584528886,-2.66326612,-0.13506317
1.072509766,0.166870117,0.219360352,0.595054154,-2.260374848,-0.106818147
1.091430664,0.185913086,0.192871094,0.619968396,-1.449795981,-0.145055513
1.102539063,0.137573242,0.161865234,0.605046497,-0.867042534,-0.214735452
1.100097656,0.141967773,0.157836914,0.603048028,-0.641215581,-0.209939127
1.068237305,0.141723633,0.109619141,0.61610469,-0.258308996,-0.191819679
1.082519531,0.129394531,0.137329102,0.623832102,-0.013429976,-0.183026417
1.005371094,0.145507813,0.156616211,0.649279269,0.241974313,-0.165439893
1.014770508,0.148071289,0.199951172,0.630227201,0.062911525,-0.145588438
1.052856445,0.129516602,0.2109375,0.580531949,-0.048869486,-0.129867152
1.038330078,0.138183594,0.180541992,0.473414031,-0.074316652,-0.061785988
1.026733398,0.146972656,0.177734375,0.424651397,0.008952873,-0.035272971
0.965454102,0.164794922,0.231811523,0.395606987,0.118069259,0.016287519
0.978759766,0.235229492,0.21472168,0.37335737,-0.005835795,0.034406968
1.001342773,0.193969727,0.171142578,0.338184322,-0.066189547,0.035606049
0.993896484,0.182495117,0.165283203,0.285691213,0.017346441,0.071844946
0.972290039,0.198242188,0.199951172,0.262242515,0.147913057,0.095293645
0.959472656,0.202148438,0.203979492,0.244389529,0.366012598,0.119941424
0.969726563,0.202270508,0.210571289,0.247187385,0.416640469,0.122206355
0.995117188,0.169677734,0.239624023,0.291420157,0.513899275,0.174433002
1.048461914,0.156494141,0.214355469,0.314868855,0.733597591,0.25050804
1.111206055,0.147583008,0.224975586,0.288888763,0.951430669,0.27515582
1.167236328,0.122192383,0.204833984,0.146597798,1.643566964,0.318455973
1.199584961,0.112792969,0.145263672,0.016564107,2.523292846,0.309795942
1.121337891,0.131347656,0.182006836,-0.026602815,2.924718574,0.298071593
0.963500977,0.121704102,0.365600586,-0.060177087,3.702789019,0.288745406
1.043945313,0.118164063,0.327758789,-0.100546153,4.07450418,0.196549388
1.056640625,0.075927734,0.384765625,-0.172624254,4.359485804,0.175099158
1.031616211,0.099365234,0.445068359,-0.393255189,4.359485804,0.076241577
0.956542969,0.087280273,0.516113281,-0.523821805,4.359485804,0.00243147
0.865600586,0.130493164,0.504150391,-0.652523183,4.359485804,-0.119475115
0.707275391,0.145629883,0.694458008,-0.657319508,4.359485804,-0.142790582
0.752563477,0.138916016,0.829101563,-0.612287348,4.359485804,-0.209272971
0.735473633,0.08996582,0.907714844,-0.733128084,4.359485804,-0.313726264
0.583251953,0.100585938,0.872192383,-0.719538497,4.359485804,-0.288012634
0.50793457,0.08972168,0.863647461,-0.638000978,4.359485804,-0.238317382
0.386352539,0.106201172,0.99621582,-0.529017823,4.359485804,-0.192619066
0.364135742,0.066894531,1.076660156,-0.481321039,4.359485804,-0.224328101
0.150146484,0.043334961,1.000488281,-0.471328696,4.359485804,-0.213269908
0.126953125,0.035644531,1.056640625,-0.422832524,4.140320413,-0.135329633
0.096679688,-0.032836914,1.065673828,-0.365010166,3.644700198,-0.057655819
0.029663086,-0.054077148,1.09387207,-0.342227624,3.570223934,-0.000632848
-0.150146484,0.013916016,1.149902344,-0.413373106,3.638838023,0.053459035
-0.135864258,0.025756836,1.139404297,-0.417503275,3.6127247,0.081437596
-0.052001953,-0.037963867,1.057250977,-0.491579844,3.329741545,0.033207887
-0.106323242,-0.041381836,1.045288086,-0.554598221,3.110309692,0.007227795
-0.272705078,-0.046386719,1.085083008,-0.625077548,2.610159615,0.061053216
-0.263793945,-0.041015625,1.102172852,-0.644396077,2.412444454,0.090763783
-0.28125,-0.058837891,1.169555664,-0.582177088,2.232848741,0.114878637
-0.336791992,-0.064453125,1.16394043,-0.516627318,2.194344913,0.164040965
-0.374389648,-0.078979492,1.07019043,-0.503837119,2.150378603,0.242247703
-0.369384766,-0.09765625,1.038452148,-0.483452739,2.224455173,0.285014931
-0.341064453,-0.061157227,1.055664063,-0.458538497,2.301329599,0.267028714
-0.395874023,-0.041503906,0.985961914,-0.440019354,2.376738481,0.21826608
-0.466308594,-0.069091797,0.979370117,-0.385394546,2.505839553,0.162975115
-0.539672852,-0.079589844,0.961181641,-0.312650288,2.624148895,0.136728561
-0.552246094,-0.059936523,1.035522461,-0.254961161,2.588975847,0.102221669
-0.533325195,-0.060668945,0.969116211,-0.148909094,2.301196368,0.030809724
-0.564575195,-0.033569336,0.860229492,-0.125860089,2.130260686,-0.029144334
-0.610717773,-0.051025391,0.86328125,-0.033264377,1.963588404,-0.117343415
-0.645629883,-0.090942383,0.955444336,0.046274674,2.101349507,-0.1565134
-0.661010742,-0.129150391,0.876586914,0.236395654,2.736995756,-0.192352604
-0.689208984,-0.163085938,0.692749023,0.307674368,3.001193306,-0.202078484
-0.779541016,-0.143676758,0.678955078,0.319265486,2.924052417,-0.169037137
-0.807006836,-0.095581055,0.655639648,0.317799942,2.639070794,-0.140125957
-0.878417969,-0.080078125,0.567138672,0.255980647,2.115738481,-0.075242343
-0.879760742,-0.0703125,0.548461914,0.17044619,1.863931436,-0.056589969
-0.903686523,-0.055419922,0.516967773,0.094637614,1.667415356,-0.067781394
-0.896728516,-0.102294922,0.510620117,0.075452316,1.58734338,-0.056723201
-0.835571289,-0.090332031,0.515380859,0.081181259,1.611191772,-0.05019487
-0.836791992,-0.0859375,0.445678711,0.116221075,1.676741543,-0.056856432
-0.895874023,-0.070800781,0.423339844,0.143000555,1.777197898,-0.081903905
-0.904907227,-0.050415039,0.461425781,0.193228732,1.65062822,-0.118409265
-0.908325195,-0.048583984,0.388793945,0.22200668,1.666615969,-0.107351072
-0.905517578,-0.044433594,0.276611328,0.261443127,1.759877837,-0.027145865
-0.875,-0.11706543,0.315307617,0.313403311,1.652493457,0.054791348
-0.895996094,-0.133911133,0.322143555,0.315002086,1.59054093,0.09369487
-0.968017578,-0.071533203,0.291015625,0.272368089,1.422802798,0.131932236
-0.979614258,-0.039794922,0.231079102,0.247054153,1.259594529,0.183093032
-1.022094727,-0.08581543,0.092895508,0.117953081,0.952230056,0.269560108
-1.026977539,-0.110961914,0.161987305,0.059464567,0.737727759,0.279419219
-0.995849609,-0.061035156,0.288452148,0.053868855,0.572920714,0.234653523
-1.006469727,-0.073242188,0.250610352,0.072387997,0.698158081,0.198814319
-1.092895508,-0.022705078,0.210571289,0.074919391,0.76357462,0.156846478
-1.138549805,-0.008422852,0.161376953,-0.039526245,0.266488861,0.072910796
-1.062011719,-0.062011719,0.162475586,-0.189811084,-0.358898582,0.022282925
-0.977294922,-0.030883789,0.232666016,-0.209929002,-0.373554019,-0.017020291
-0.963012695,-0.018432617,0.17175293,-0.18075136,-0.179436101,-0.041001914
-1.019287109,-0.004882813,0.163818359,-0.097481835,0.227585339,-0.049395482
-1.11730957,-0.017822266,0.240112305,-0.110804959,-0.30387408,-0.046597626
-1.068725586,-0.116088867,0.128662109,-0.172491023,-0.776978215,-0.043133614
-1.036621094,-0.108032227,0.142456055,-0.260556873,-1.421018033,-0.00836026
-1.062133789,-0.068115234,0.162841797,-0.264820273,-1.615402413,0.036405436
-1.064453125,-0.080078125,0.203369141,-0.214991789,-1.972995062,0.122472818
-1.098388672,-0.012207031,0.352294922,-0.187279691,-2.211745446,0.148985835
-1.092773438,-0.014038086,0.375244141,-0.122262845,-2.916139015,0.15711294
-1.075073242,-0.060791016,0.457641602,-0.101345541,-3.361797515,0.139526417
-1.000976563,-0.127075195,0.503295898,-0.046720732,-4.202353412,0.09156317
-0.836181641,-0.092163086,0.607788086,0.151660585,-4.37182355,0.022149694
-0.822875977,-0.075439453,0.615722656,0.235596267,-4.37182355,-0.012890123
-0.768798828,-0.080200195,0.62487793,0.326726435,-3.982521865,-0.050594564
-0.744628906,-0.057739258,0.670166016,0.349908671,-3.775347285,-0.079505743
-0.641357422,-0.047241211,0.870727539,0.439839759,-3.656105325,-0.189421516
-0.605957031,-0.020263672,0.904663086,0.498594736,-3.760425386,-0.26176608
-0.62121582,0.017700195,0.84765625,0.550155226,-4.207682661,-0.358225498
-0.620727539,-0.036254883,0.852050781,0.493931642,-4.37182355,-0.369283691
-0.552368164,-0.022949219,0.967163086,0.35617054,-4.37182355,-0.422309725
-0.443847656,0.016113281,0.984619141,0.385881106,-4.37182355,-0.424441425
-0.355712891,0.029907227,0.88293457,0.461023526,-4.37182355,-0.361822742
-0.314086914,0.000976563,0.86706543,0.45715982,-4.37182355,-0.320121363
-0.218505859,0.009521484,1.036621094,0.336185853,-4.37182355,-0.340106049
-0.181884766,0.009521484,1.117919922,0.232531948,-4.37182355,-0.403923814
-0.111816406,-0.004394531,1.041259766,0.159254766,-4.37182355,-0.454151991
-0.010131836,0.024902344,0.933227539,0.192829039,-4.37182355,-0.437764549
0.208129883,0.040893555,0.798461914,0.268770846,-4.37182355,-0.380208653
0.259155273,0.037475586,0.843383789,0.321663648,-4.37182355,-0.268427642
0.416137695,0.021972656,0.894287109,0.17364374,-4.37182355,-0.280285222
0.588134766,0.023681641,0.89855957,0.08024864,-4.37182355,-0.324517994
0.618896484,0.088989258,0.897216797,0.054535011,-4.37182355,-0.400459801
0.752685547,0.11340332,0.680664063,0.146597798,-4.37182355,-0.380475115
0.88671875,0.124023438,0.717407227,0.182303771,-3.428812829,-0.412983538
0.855224609,0.113647461,0.747070313,0.157655991,-2.897086947,-0.432035605
0.844238281,0.039306641,0.698852539,0.14899596,-2.27556321,-0.440429174
0.850830078,0.023803711,0.60559082,0.2058857,-2.252647436,-0.427905437
0.873657227,0.072509766,0.553222656,0.440905609,-2.403198738,-0.415648163
0.940795898,0.075317383,0.590942383,0.556417094,-2.462353409,-0.406588439
1.004394531,0.051635742,0.564208984,0.516048028,-2.483137483,-0.416314319
0.992797852,0.071044922,0.549804688,0.419055685,-2.685915431,-0.490257658
0.957397461,0.089477539,0.541870117,0.446101627,-3.024322782,-0.538753829
0.985595703,0.10949707,0.391723633,0.458891826,-3.188996595,-0.598841119
1.038208008,0.125854492,0.413452148,0.470216481,-3.128376381,-0.598707887
0.963012695,0.132568359,0.411499023,0.508986773,-2.818480515,-0.52063438
0.95300293,0.186279297,0.360107422,0.484605455,-2.620765354,-0.442294411
1.052612305,0.219116211,0.265136719,0.40133593,-2.226001188,-0.354628255
1.039550781,0.135009766,0.134887695,0.406531948,-2.006569335,-0.326782925
0.977172852,0.152954102,0.156005859,0.532435471,-1.546921555,-0.276155054
0.986083984,0.161254883,0.169921875,0.605179728,-1.339746976,-0.244046325
1.016357422,0.166503906,0.104248047,0.666466099,-1.043307465,-0.211004977
1.047607422,0.161499023,0.091186523,0.670196574,-0.934324311,-0.127735452
0.976196289,0.229858398,0.1640625,0.698441597,-0.787636715,-0.0673817
1.003173828,0.217651367,0.016479492,0.698175134,-0.670926148,-0.07817343
1.100585938,0.21472168,-0.022949219,0.639819851,-0.16744529,-0.05552412
1.040039063,0.1796875,-0.005615234,0.615172071,0.141251495,-0.005429173
1.021972656,0.158447266,-0.037597656,0.628761658,0.492715508,0.072777565
1.036743164,0.177368164,0.020019531,0.632492133,0.487519489,0.070246172
1.040405273,0.166503906,-0.001342773,0.563611581,0.326576151,0.035339587
0.98449707,0.198242188,0.000366211,0.517646803,0.248635875,0.008560107
1.044311523,0.185180664,0.047607422,0.467685088,0.234380132,0.001232389
1.030395508,0.19909668,0.055664063,0.43677544,0.299796671,0.019884763
1.057250977,0.208129883,0.053588867,0.359368089,0.433427605,0.076774502
1.083496094,0.200073242,0.012573242,0.29821495,0.485121327,0.091030245
1.118164063,0.175048828,-0.017578125,0.144865792,0.657122858,0.100622894
1.165161133,0.171020508,-0.018920898,-0.051517057,1.151810455,0.111148162
1.125610352,0.201660156,0.110717773,-0.145844775,1.568024851,0.163241578
1.135742188,0.235351563,0.177368164,-0.353152585,2.574453642,0.318056279
1.05456543,0.227539063,0.17590332,-0.510498681,3.291770642,0.354961333
1.025146484,0.211425781,0.170776367,-0.587506338,3.458176461,0.323252298
1.001953125,0.15637207,0.221923828,-0.74565182,3.734498054,0.14099196
0.904663086,0.09753418,0.304321289,-0.794014761,3.982974318,0.189621363
1.082763672,0.112304688,0.461181641,-0.977340948,4.359485804,0.215601455
1.024780273,0.086181641,0.446411133,-1.205432832,4.359485804,0.125537136
0.853271484,0.159179688,0.470214844,-1.243270504,4.359485804,-0.068181087
0.811401367,0.182128906,0.572998047,-1.229147992,4.359485804,-0.153982006
0.697631836,0.028198242,0.676757813,-1.132821806,4.359485804,-0.17902948
0.486694336,0.053955078,0.927978516,-1.118566063,4.153643537,0.031609112
0.475219727,0.056396484,0.965942383,-1.084325634,4.122600658,0.157379403
0.575927734,0.021484375,0.831176758,-1.008117364,4.232916125,0.274489663
0.651245117,0.052734375,0.892456055,-0.758974944,4.359485804,0.318322742
0.613525391,0.079467773,0.942260742,-0.649592096,4.359485804,0.226259954
0.475219727,-0.00378418,0.866210938,-0.589105113,4.359485804,0.163108346
0.300170898,-0.064086914,1.003662109,-0.494910625,4.359485804,0.297405437
0.220825195,-0.037719727,0.985961914,-0.44708061,4.359485804,0.333910797
0.149291992,-0.060058594,1.041992188,-0.378466521,4.359485804,0.382673431
-0.084960938,-0.060668945,1.029174805,-0.503037731,4.359485804,0.464344181
-0.362548828,-0.05871582,1.085083008,-0.649059171,4.359485804,0.716017995
-0.301147461,-0.040527344,1.077758789,-0.689561468,4.359485804,0.782367153
-0.115722656,-0.124511719,1.024780273,-0.819062234,4.340700199,0.700563171
-0.185058594,-0.114624023,0.99609375,-0.928045389,4.278347978,0.61023239
-0.461914063,-0.022094727,0.987182617,-0.995726859,4.197210153,0.485394717
-0.506469727,-0.031616211,0.97265625,-0.95828888,4.142851807,0.453285988
-0.520019531,-0.113769531,0.931640625,-0.898334822,4.070374012,0.415048622
-0.619384766,-0.112426758,0.90625,-0.878350136,4.012551653,0.375212481
-0.762695313,-0.065063477,0.818725586,-0.853302663,3.639104486,0.358292114
-0.698486328,-0.135864258,0.872070313,-0.808536966,3.339067732,0.379475881
-0.66809082,-0.140258789,0.865234375,-0.657053045,2.771769109,0.375212481
-0.71887207,-0.170776367,0.768676758,-0.53194891,2.603364821,0.370549388
-0.757080078,-0.203979492,0.720947266,-0.378466521,2.663185648,0.329780628
-0.754882813,-0.213134766,0.828491211,-0.151440487,2.97161597,0.314991961
-0.729125977,-0.166381836,0.774291992,-0.040325633,3.09831888,0.312593798
-0.891357422,-0.154907227,0.532836914,0.053202698,3.126830366,0.372148163
-0.965942383,-0.153808594,0.502075195,0.057332867,3.013717042,0.426373278
-0.947387695,-0.129760742,0.554199219,0.095037308,2.46786865,0.521633615
-0.952758789,-0.067871094,0.509155273,0.144066404,1.872191773,0.573860261
-0.96887207,-0.058105469,0.432373047,0.152326741,1.71724384,0.601972053
-0.95715332,-0.05456543,0.360473633,0.110358901,1.72044139,0.636478944
-0.927734375,-0.012329102,0.360961914,0.080914796,1.824228526,0.630350307
-0.91796875,-0.010864258,0.316772461,0.011234858,2.026473549,0.642341119
-0.981689453,0.009277344,0.254760742,-0.025270502,2.033668036,0.647004212
-0.875854492,-0.033325195,0.265625,-0.136785051,1.589741543,0.57052948
-0.897949219,-0.005249023,0.322998047,-0.127325633,1.446917653,0.518702528
-0.883300781,0.078125,0.213745117,-0.063507868,1.423735417,0.461146632
-0.852416992,0.031982422,0.139526367,0.025757063,1.631442921,0.446757658
-0.923950195,-0.033203125,0.136230469,0.062395654,1.750418419,0.434633615
-0.948608398,-0.006713867,0.123168945,0.110225669,1.775066198,0.387736218
-0.938354492,0.053955078,0.048461914,0.129544199,1.695527148,0.372281394
-0.993164063,0.058837891,0.098266602,0.088908671,1.408147362,0.268627489
-0.939086914,0.032226563,0.028076172,0.075052622,1.204303564,0.224261486
-0.939453125,0.032348633,-0.055175781,0.126346649,1.100116734,0.204543262
-0.974975586,0.047485352,-0.057983398,0.140469161,1.152609842,0.186823507
-0.985351563,0.04309082,-0.088623047,0.157922454,0.975545524,0.164440659
-1.0078125,0.062744141,-0.12487793,0.141801473,0.581181051,0.081570827
-1.030639648,0.084838867,-0.109375,0.142067936,0.424767575,0.022282925
-1.056274414,0.076538086,-0.172119141,0.117953081,0.174559305,-0.079638974
-1.069335938,0.046020508,-0.189331055,0.088109283,0.020011066,-0.119741577
-1.13671875,0.022460938,-0.170166016,-0.00781721,-0.531033345,-0.187955973
-1.146484375,-0.010253906,-0.154663086,-0.134120426,-1.321361065,-0.265363323
-1.105957031,0.008300781,-0.082397461,-0.179152585,-1.63552033,-0.284548622
-1.114746094,0.020385742,-0.048461914,-0.205132677,-2.163382505,-0.303334227
-1.156494141,0.033325195,-0.00012207,-0.205665602,-2.484736258,-0.291743109
-1.149902344,0.040405273,0.035400391,-0.200869277,-3.33661681,-0.245911562
-1.06262207,0.026977539,0.268310547,-0.137451207,-3.716059383,-0.259234686
-0.997558594,0.057983398,0.271118164,-0.008616597,-4.00463825,-0.333977412
-0.990234375,0.039428711,0.220947266,0.08984129,-3.866610685,-0.326916157
-0.9609375,0.015136719,0.349975586,0.228135317,-3.511016504,-0.249775268
-0.929199219,-0.020996094,0.399414063,0.30247835,-3.28505632,-0.199946784
-0.92565918,-0.033569336,0.428466797,0.3798857,-2.954909306,-0.137061639
-0.900146484,-0.022583008,0.606689453,0.383216481,-2.976625998,-0.140525651
-0.871337891,-0.016235352,0.646850586,0.410928579,-3.481439169,-0.188622129
-0.746582031,0.017578125,0.688354492,0.532968396,-4.22473626,-0.254971287
-0.762695313,0.024414063,0.66015625,0.566009743,-4.37182355,-0.286813553
-0.754638672,0.006591797,0.705810547,0.489668243,-4.326258465,-0.331978944
-0.773681641,0.049194336,0.695068359,0.392276206,-4.153057853,-0.315325039
-0.608886719,0.025024414,0.771240234,0.297815256,-3.891924621,-0.334110644
-0.367919922,-0.015380859,0.910888672,0.3798857,-3.712728602,-0.436565468
-0.441772461,-0.003173828,0.931274414,0.433444659,-3.666630593,-0.486127489
-0.495849609,0.007446289,0.974609375,0.421187385,-3.686482048,-0.576058577
-0.371337891,0.006958008,0.972167969,0.377754001,-3.807456014,-0.627086142
-0.265136719,-0.020751953,0.940429688,0.363631489,-4.293750043,-0.647204059
-0.205566406,0.024658203,1.052001953,0.371092438,-4.37182355,-0.654132084
-0.220214844,0.058227539,1.103881836,0.362565639,-4.37182355,-0.684375575
-0.169921875,0.008056641,1.136962891,0.333387997,-4.37182355,-0.717416923
-0.075683594,-0.026977539,1.121459961,0.278097033,-4.37182355,-0.836392421
0.100341797,-0.032958984,0.983276367,0.271435471,-4.37182355,-0.885421517
0.177124023,-0.008056641,0.974975586,0.30247835,-4.37182355,-0.861839588
0.200195313,0.076660156,1.101806641,0.25744619,-4.37182355,-0.789228562
0.283935547,0.056396484,1.057128906,0.214012806,-4.37182355,-0.739799771
0.400390625,0.061035156,0.979980469,0.210282331,-4.37182355,-0.755654289
0.578369141,0.074584961,0.954101563,0.145398717,-4.37182355,-0.769510338
0.625366211,0.106689453,0.970825195,0.107561045,-4.37182355,-0.760583845
0.716064453,0.085205078,0.816040039,0.110625363,-4.37182355,-0.625620598
0.712036133,0.080566406,0.719604492,0.143799942,-4.37182355,-0.533824273
0.721191406,0.091796875,0.683837891,0.228934705,-4.200221712,-0.398594564
0.789428711,0.146606445,0.641479492,0.194960738,-4.182501957,-0.331312788
0.801635742,0.147338867,0.600585938,0.149395654,-4.140800578,-0.342104518
0.881469727,0.153320313,0.511230469,0.114089375,-4.026887868,-0.346101455
0.873657227,0.184692383,0.501953125,0.119152162,-3.691811298,-0.317723201
0.8046875,0.193725586,0.44934082,0.160187385,-3.561644375,-0.338240812
0.84362793,0.146728516,0.414672852,0.224937768,-3.448397821,-0.316257657
0.950439453,0.152709961,0.253173828,0.228268549,-3.411892461,-0.305732389
0.957397461,0.135131836,0.193237305,0.251450784,-3.164348816,-0.367818148
1.010986328,0.100708008,0.141723633,0.313403311,-2.964102261,-0.344102987
0.993896484,0.123168945,0.166625977,0.317799942,-2.437039473,-0.320654288
0.998535156,0.129760742,0.155151367,0.324061811,-2.102229366,-0.257369449
1.05090332,0.143676758,0.130615234,0.329657523,-1.400500422,-0.081637443
1.175415039,0.190673828,0.006469727,0.268371152,-1.037711753,-0.013822741
1.147460938,0.186401367,-0.049682617,0.152726435,-0.393805167,0.015754594
1.100097656,0.156616211,-0.030151367,0.071322147,0.093954404,0.087166539
1.082641602,0.166381836,-0.00769043,0.025090907,0.271684879,0.104886294
1.059448242,0.165771484,0.004394531,-0.042457332,0.376804328,0.16350804
1.025634766,0.19152832,0.01171875,-0.049785051,0.354155017,0.162175728
1.017944336,0.193969727,0.041137695,-0.030066827,0.370275997,0.153648928
1.05065918,0.139648438,0.036132813,0.062528885,0.490317345,0.198681088
1.073852539,0.137573242,0.140380859,0.143933173,0.601698662,0.290877106
1.055419922,0.136230469,0.115966797,0.168181259,0.63474001,0.313393186
1.051269531,0.134521484,0.089233398,0.244256297,0.759977376,0.335642803
1.033325195,0.109130859,0.138427734,0.339516634,1.035632813,0.359091501
1.010986328,0.124145508,0.155883789,0.389878043,1.139952874,0.396795942
0.942993164,0.125,0.234130859,0.521377278,1.24254093,0.487393186
0.916625977,0.138061523,0.267211914,0.601316022,1.30489315,0.525097627
0.987182617,0.109375,0.268920898,0.763858136,1.57015655,0.607834227
1.025390625,0.065551758,0.286010742,0.83513685,1.709649659,0.697099159
1.008544922,0.098754883,0.275634766,0.952380341,1.82782577,0.787163477
0.973022461,0.096923828,0.352172852,0.992349713,1.814635877,0.784099159
1.001220703,0.090332031,0.33581543,1.090541138,1.8450126,0.712553983
1.086303711,-0.073242188,0.358154297,1.11225783,1.939207087,0.730273738
1.142211914,-0.044311523,0.370483398,1.069490602,2.206069262,0.806215545
1.087646484,-0.005004883,0.387084961,0.959441597,2.394724699,0.792625958
0.963012695,0.061767578,0.45324707,0.888962271,2.516631284,0.76917726
0.91809082,0.064331055,0.470825195,0.833538075,3.069407701,0.743730093
0.997924805,0.017333984,0.466674805,0.836202699,3.542645068,0.702694871
1.018066406,-0.029418945,0.544189453,0.79117054,4.359485804,0.68217726
0.982177734,-0.023193359,0.720214844,0.707234859,4.359485804,0.709489664
0.946166992,0.002441406,0.775512695,0.402801474,4.359485804,0.700296708
0.826904297,-0.048095703,0.752563477,0.241991366,4.359485804,0.49751876
0.764160156,-0.014892578,0.747070313,0.222939299,4.359485804,0.450088439
0.573120117,0.006713867,0.866455078,0.167781565,4.359485804,0.30100268
0.316772461,0.042114258,1.086791992,0.06732521,4.359485804,0.18602412
0.235839844,0.061035156,1.064453125,-0.017143397,4.359485804,0.00243147
0.109863281,0.017456055,1.039672852,0.019228732,4.359485804,-0.143723201
-0.045410156,-0.004150391,1.096191406,0.011234858,4.359485804,-0.218599158
-0.11706543,-0.05065918,1.107543945,-0.067904499,4.348694073,-0.349965161
-0.263671875,-0.099731445,1.152099609,-0.066039262,3.555435267,-0.361156585
-0.246337891,-0.134399414,1.166503906,-0.042324101,2.061380135,-0.318789051
-0.20703125,-0.092529297,1.162353516,-0.025536965,1.655691007,-0.31012902
-0.22277832,-0.049438477,1.115478516,0.00723792,1.654891619,-0.293874809
-0.283813477,-0.000976563,0.999755859,0.020694276,1.924951344,-0.267361792
-0.294067383,0.029296875,0.944458008,0.009502851,2.49904476,-0.221397014
-0.256713867,0.021362305,0.950195313,0.036015868,2.732998818,-0.184092267
-0.192260742,0.016479492,0.951660156,0.141268548,3.227419952,-0.137061639
-0.403808594,-0.015869141,1.004516602,0.178040371,3.920355635,-0.20913974
-0.520263672,0.012084961,0.953125,0.14793011,4.22052562,-0.213536371
-0.505737305,0.001220703,0.743530273,0.113956144,4.241842618,-0.19515046
-0.558349609,-0.044555664,0.813232422,0.117553388,4.051188713,-0.187556279
-0.590209961,-0.06262207,0.926879883,0.188965333,3.470566966,-0.224994258
-0.728759766,-0.059204102,0.877197266,0.168847415,3.223423015,-0.296006509
-0.821777344,-0.030395508,0.724243164,0.103697339,2.748453642,-0.298671134
-0.817749023,-0.008178711,0.66784668,0.101299176,2.554735418,-0.302934533
-0.813598633,0.018920898,0.668334961,0.150994429,2.336236184,-0.334510337
-0.800415039,-0.011352539,0.693969727,0.215345118,2.321980441,-0.33157925
-0.776123047,-0.045898438,0.657714844,0.309539605,2.643867118,-0.383406203
-0.819213867,-0.014770508,0.591552734,0.34977544,2.947367885,-0.458681854
-0.920043945,0.047119141,0.546264648,0.37015982,2.863565434,-0.481997321
-0.924316406,0.051391602,0.544555664,0.36589642,2.193811988,-0.474669602
-0.881591797,-0.054199219,0.461914063,0.379486007,1.822230058,-0.369283691
-0.84362793,-0.065063477,0.344970703,0.345378809,1.87938626,-0.331446019
-0.968383789,-0.07019043,0.330444336,0.216677431,1.936142768,-0.248309725
-0.992919922,-0.053588867,0.333618164,0.165116941,1.710049353,-0.160510337
-0.9765625,-0.015625,0.295410156,0.070123066,1.147813518,0.025214012
-0.933349609,-0.033325195,0.254394531,0.021626894,1.109309689,0.118342649
-0.894165039,-0.056518555,0.206542969,0.011634551,1.422802798,0.286480475
-0.93359375,-0.006225586,0.239013672,0.003374214,1.58081505,0.335509572
-0.976806641,-0.009887695,0.22253418,-0.019408328,1.548040164,0.449821976
-1.027587891,0.025878906,0.201293945,-0.066305724,1.318083043,0.526429939
-1.027709961,0.031005859,0.226318359,-0.085491023,1.207767576,0.517503446
-0.974121094,0.006591797,0.246948242,-0.091486429,1.091323472,0.476468224
-0.936279297,-0.032592773,0.225830078,-0.080428236,1.070939092,0.348832696
-0.941040039,-0.029418945,0.135253906,-0.088022417,1.301962063,0.25477144
-1.048095703,-0.014282227,0.063842773,-0.10880649,1.24147508,0.254638209
-1.099365234,0.002563477,0.043212891,-0.200469584,0.776098356,0.226792879
-1.034057617,0.026245117,0.05480957,-0.309452739,0.418372475,0.14205781
-1.006103516,0.015136719,-0.010864258,-0.34609133,0.378936028,0.100223201
-1.018554688,0.024658203,0.018432617,-0.403647226,0.344029443,0.031742343
-1.031494141,0.031494141,-0.010253906,-0.412040794,0.197075385,3.33078E-05
-1.043457031,0.05456543,0.023071289,-0.383396077,-0.106158919,-0.099490429
-1.07019043,0.069458008,0.028930664,-0.352752892,-0.223935336,-0.16184265
-1.143066406,0.100708008,-0.015258789,-0.278276628,-0.661999655,-0.26070023
-1.190795898,0.052978516,-0.000976563,-0.198204653,-1.367325843,-0.331712481
-1.184692383,0.015380859,0.037109375,-0.144912156,-1.702668875,-0.363288285
-1.166748047,-0.001953125,0.032348633,-0.07656453,-1.954875614,-0.379142803
-1.151000977,-0.011474609,0.123779297,0.10702812,-2.354436104,-0.389135146
-1.095458984,-0.080566406,0.245849609,0.206018931,-2.529368723,-0.400060108
-1.120605469,-0.104980469,0.193481445,0.343513572,-2.816748509,-0.393265314
-1.031494141,-0.094604492,0.30065918,0.381617706,-3.065624467,-0.445758423
-1.002563477,-0.05847168,0.395019531,0.486870387,-3.75762753,-0.520900843
-0.949707031,-0.036621094,0.369750977,0.523508978,-4.116152799,-0.547547091
-0.882324219,-0.0234375,0.442749023,0.609842822,-4.37182355,-0.56673239
-0.808959961,-0.060546875,0.639770508,0.667132255,-4.37182355,-0.600439894
-0.872192383,-0.077392578,0.627075195,0.722822914,-4.102163519,-0.597775269
-0.852416992,0.003540039,0.565917969,0.675925517,-4.026221711,-0.542217841
-0.784912109,-0.014038086,0.572631836,0.483806068,-4.078315127,-0.406188745
-0.591552734,-0.040161133,0.805664063,0.455427814,-4.136936872,-0.341971287
-0.55078125,-0.062133789,0.868652344,0.435043434,-4.175707163,-0.280418454
-0.493408203,-0.1171875,0.864501953,0.361366558,-4.231397822,-0.199813553
-0.428222656,-0.078491211,0.930297852,0.316600861,-4.278161987,-0.151050919
-0.382080078,-0.026611328,0.969726563,0.325527354,-4.37182355,-0.075642037
-0.303100586,0.025634766,0.959594727,0.362432408,-4.37182355,-0.071378637
-0.218505859,0.013549805,0.926269531,0.364031183,-4.213011911,-0.098691041
-0.192749023,-0.01550293,0.970825195,0.338184322,-4.168512676,-0.09962366
-0.097167969,-0.006469727,1.036865234,0.354838227,-4.35037332,-0.118675728
-0.102661133,0.000976563,0.978027344,0.335386466,-4.37182355,-0.142790582
-0.098388672,0.031860352,1.016357422,0.268371152,-4.37182355,-0.178230092
-0.093383789,0.052001953,1.044189453,0.266639146,-4.37182355,-0.174099924
0.04284668,0.060913086,0.926757813,0.283559513,-4.37182355,-0.147720138
0.18762207,0.046264648,0.946044922,0.308473755,-4.37182355,-0.149185682
0.399169922,0.057495117,1.002075195,0.340848947,-4.37182355,-0.178896248
0.460083008,0.051879883,0.989257813,0.320864261,-4.37182355,-0.202211715
0.49206543,0.033935547,0.974121094,0.32073103,-4.307606092,-0.196349541
0.531616211,0.043823242,0.904052734,0.344312959,-4.137203335,-0.190354135
0.543457031,0.061279297,0.912597656,0.423052622,-4.034348817,-0.15118415
0.621337891,0.006225586,0.954956055,0.396139912,-4.10016505,-0.106818147
0.713256836,-0.02722168,0.81640625,0.273433939,-4.299612217,-0.050727795
0.760131836,0.006469727,0.755981445,0.205619238,-4.369558619,-0.059787519
0.829101563,0.082519531,0.724487305,0.167648334,-4.209281436,-0.094694104
0.915771484,-0.002075195,0.609863281,0.210415562,-3.983587714,-0.098024885
1.011352539,0.00402832,0.558105469,0.293152163,-3.452927683,-0.10068951
1.028076172,0.023193359,0.507324219,0.314069468,-3.207249275,-0.130533308
1.069824219,0.004272461,0.408569336,0.319798411,-2.763456013,-0.238450613
1.078491211,0.002929688,0.401977539,0.324328273,-2.533498892,-0.262032542
1.030517578,0.03918457,0.380004883,0.389611581,-2.125145139,-0.28641386
1.05090332,0.068969727,0.359741211,0.422253235,-1.975259994,-0.330246938
1.036010742,0.085571289,0.312988281,0.403067936,-1.768351877,-0.424041731
1.027099609,0.093261719,0.362792969,0.360700402,-1.735576992,-0.437364855
0.996704102,0.102783203,0.329345703,0.286490601,-1.665497359,-0.394331164
1.065185547,0.098510742,0.328369141,0.283692745,-1.629391693,-0.377544028
1.057495117,0.082275391,0.243286133,0.292486007,-1.500290621,-0.414715544
1.029418945,0.082641602,0.230957031,0.298481412,-1.418220177,-0.410718607
1.005615234,0.116699219,0.259155273,0.301545731,-1.153756164,-0.343037137
0.995849609,0.179077148,0.195800781,0.308606987,-1.011065505,-0.323851838
0.976318359,0.184814453,0.178222656,0.386813725,-0.855584647,-0.282949847
0.977661133,0.161499023,0.196289063,0.432245578,-0.766985872,-0.273756892
1.006958008,0.158203125,0.166381836,0.448899483,-0.686647434,-0.253638974
0.988037109,0.173828125,0.15625,0.446767783,-0.506652028,-0.198481241
1.028076172,0.188598633,0.15637207,0.426383403,-0.450295213,-0.156779862
1.048339844,0.18371582,0.145874023,0.341515103,-0.400999654,-0.102288285
1.014160156,0.163330078,0.145019531,0.31433593,-0.361696438,-0.049928407
0.974853516,0.180419922,0.152099609,0.321663648,-0.314399348,0.041334992
0.996337891,0.187988281,0.134277344,0.335120004,-0.346508077,0.061319678
1.020141602,0.180053711,0.099731445,0.337118472,-0.45096137,0.036938361
1.067626953,0.136230469,0.022094727,0.319132255,-0.421916959,0.033341118
1.069335938,0.127197266,-0.012329102,0.270236389,-0.224335029,0.046131317
1.047363281,0.145751953,-0.016845703,0.247187385,-0.080312058,0.050927642
1.062011719,0.158813477,-0.032348633,0.188165945,0.396922246,0.036138974
1.073608398,0.173706055,-0.045166016,0.141535011,0.710815048,0.028944487
1.092041016,0.201049805,0.035400391,-0.023005571,1.402418418,0.028678025
1.092773438,0.198608398,0.036132813,-0.104010166,1.7558809,0.033740812
1.076416016,0.200073242,0.026489258,-0.223918282,2.48612133,0.087566233
1.076049805,0.20703125,0.031005859,-0.378732984,3.069540932,0.105285988
1.075561523,0.177612305,0.078369141,-0.44388306,3.334804332,0.107017994
1.065917969,0.106933594,0.136474609,-0.535412923,3.977911531,0.070645865
1.077270508,0.006591797,0.306274414,-0.532348604,4.359485804,0.127135911
1.010986328,0.112426758,0.5,-0.585241407,4.359485804,0.226126723
0.956298828,0.15222168,0.481445313,-0.618149523,4.359485804,0.166172665
0.942138672,0.146118164,0.426879883,-0.770699294,4.359485804,0.149918453
0.782714844,0.138427734,0.631713867,-0.841045389,4.359485804,0.137394717
0.71875,0.116577148,0.698852539,-0.90779424,4.359485804,0.131799005
0.64831543,0.067016602,0.683959961,-0.882213842,4.359485804,0.148852604
0.646362305,0.067626953,0.784790039,-0.785887655,4.359485804,0.148319679
0.660522461,0.117553711,0.974853516,-0.825990258,4.359485804,-0.05232657
0.520385742,0.04675293,0.853881836,-0.831852433,4.359485804,-0.100556279
0.449951172,0.030517578,0.891113281,-0.774563,4.359485804,-0.097891654
0.314453125,0.044189453,0.900512695,-0.638800365,4.359485804,-0.094427642
0.225341797,0.040893555,0.85534668,-0.596432831,4.359485804,-0.097225498
-0.087646484,0.041625977,1.00793457,-0.640265909,4.359485804,-0.211404671
-0.144287109,0.017089844,1.048706055,-0.687829462,4.359485804,-0.191819679
-0.319458008,-0.108276367,0.912719727,-0.828521652,4.359485804,-0.054325038
-0.432983398,-0.083984375,0.926635742,-0.924581376,4.359485804,0.145921516
-0.598022461,-0.047729492,1.118896484,-0.939370044,4.359485804,0.180028714
-0.553588867,-0.000366211,1.220581055,-0.926313383,4.024542465,0.052792879
-0.578125,0.013793945,1.045043945,-1.004520121,3.276715511,0.056923048
-0.691162109,-0.130737305,0.761230469,-1.152540029,2.562196368,0.138860261
-0.584228516,-0.141479492,0.900512695,-1.08605764,2.977344914,0.256236984
-0.511962891,-0.212890625,0.803222656,-0.928978007,3.925551653,0.272224732
-0.723144531,-0.145507813,0.63659668,-0.876751361,4.359485804,0.259301302
-0.932861328,-0.116943359,0.583007813,-0.818795771,4.359485804,0.328581547
-0.930419922,-0.140136719,0.568969727,-0.802008635,3.633908467,0.4652768
-0.869384766,-0.098144531,0.449462891,-0.779359324,3.181854868,0.535356433
-0.904174805,-0.073242188,0.401367188,-0.651457333,2.804677226,0.637678025
-0.920166016,-0.139648438,0.489501953,-0.531815679,2.732865587,0.554941425
-0.932128906,-0.177734375,0.444702148,-0.486117364,2.674909998,0.545215544
-0.953613281,-0.124755859,0.296386719,-0.378599752,2.608161146,0.512040965
-0.929321289,-0.067504883,0.314208984,-0.308120426,2.677841085,0.49538706
-0.958251953,-0.077392578,0.227416992,-0.147177087,2.67304476,0.463678025
-1.020874023,-0.093383789,0.224487305,-0.106141865,2.40564966,0.411184916
-1.099609375,-0.055786133,0.169555664,-0.068970349,1.642900808,0.431302834
-1.005249023,-0.086791992,0.03894043,-0.040592095,1.412011068,0.46847435
-0.991821289,-0.06628418,0.024291992,0.018162882,1.295566963,0.516970521
-1.008666992,-0.016723633,0.11328125,0.112357369,1.235346443,0.455950613
-1.057983398,-0.015625,0.000610352,0.135273143,1.230150424,0.414249235
-1.115112305,0.007324219,-0.022094727,0.10596227,0.875089168,0.357359495
-1.063354492,0.012939453,0.05090332,0.077317553,0.49511367,0.34070559
-1.018432617,-0.008300781,0.04296875,0.06625936,0.084628218,0.273557045
-0.993164063,-0.00769043,-0.002563477,0.101165945,0.149778294,0.209073124
-0.996826172,0.026123047,0.0625,0.190031182,0.298064665,0.102088438
-1.025024414,0.029174805,0.073852539,0.22200668,0.247570025,0.062785222
-1.028564453,-0.009399414,0.009033203,0.212414031,0.031868646,0.024814319
-1.038208008,-0.013793945,0.008911133,0.190963801,-0.118815887,0.008959801
-1.017456055,-0.03515625,0.05847168,0.152060279,-0.448962901,-0.035539433
-1.013183594,-0.051391602,0.041381836,0.144732561,-0.53902722,-0.058455207
-1.016967773,-0.046020508,0.006713867,0.183502852,-0.680652028,-0.099357198
-1.030395508,-0.03894043,0.012695313,0.22627008,-0.876768415,-0.079772205
-1.100585938,-0.004516602,-0.014526367,0.238527354,-1.045838859,-0.041401608
-1.110595703,0.060058594,0.055664063,0.261443127,-1.634321249,-0.011024885
-1.070800781,0.046875,0.141967773,0.278496726,-1.910376379,-0.044066233
-1.001708984,-0.032470703,0.16015625,0.290487538,-2.079713286,-0.110415391
-1.050170898,-0.045898438,0.154541016,0.357769314,-2.335517268,-0.207141271
-1.106811523,-0.026245117,0.240478516,0.359634552,-2.864711756,-0.287346478
-1.11730957,-0.012084961,0.275512695,0.354704996,-3.156354942,-0.305998852
-1.085571289,-0.013916016,0.300170898,0.338983709,-3.825575463,-0.312393951
-0.869628906,-0.087524414,0.609741211,0.473680494,-4.37182355,-0.450021823
-0.891357422,-0.127685547,0.648681641,0.528571765,-4.37182355,-0.522099924
-0.919677734,-0.090454102,0.539428711,0.538297645,-4.37182355,-0.597642038
-0.911621094,-0.034667969,0.522583008,0.502058748,-4.37182355,-0.619092267
-0.830444336,-0.033203125,0.638671875,0.478077125,-4.37182355,-0.615894718
-0.723266602,-0.058349609,0.693359375,0.498861198,-4.37182355,-0.613096861
-0.610229492,-0.110961914,0.72644043,0.497528886,-4.37182355,-0.584185682
-0.559204102,-0.088500977,0.734619141,0.486337462,-4.37182355,-0.585118301
-0.509033203,-0.059692383,0.868164063,0.491000555,-4.37182355,-0.56566654
-0.44921875,-0.030395508,0.911499023,0.430247109,-4.37182355,-0.569663477
-0.340454102,-0.005493164,0.904418945,0.423718779,-4.37182355,-0.550344947
-0.232055664,0.010742188,0.944946289,0.391743281,-4.37182355,-0.482263783
-0.059936523,-0.017822266,0.977783203,0.391077125,-4.37182355,-0.462279097
0.153442383,-0.053588867,1.011108398,0.455294583,-4.37182355,-0.51623775
0.297119141,-0.048828125,0.970336914,0.4668857,-4.37182355,-0.521966693
0.381958008,0.008056641,0.997192383,0.455427814,-4.37182355,-0.45401876
0.456665039,-0.021484375,1.063354492,0.426916328,-4.135871022,-0.371815085
0.489257813,-0.00402832,1.015380859,0.448766252,-3.76935188,-0.282550154
0.669677734,0.052978516,0.90637207,0.453029651,-3.754563212,-0.264031011
0.706054688,0.065673828,0.878417969,0.440239452,-3.80159384,-0.304666539
0.701660156,0.067749023,0.863769531,0.419055685,-3.734578526,-0.333844181
0.707519531,0.079101563,0.860839844,0.343113878,-3.373921557,-0.325850307
0.767211914,0.077880859,0.828735352,0.293285394,-3.178604559,-0.313193339
0.832275391,0.09375,0.768554688,0.245721841,-2.851655094,-0.300936065
0.822143555,0.070678711,0.721313477,0.294484475,-2.531500423,-0.312660414
0.841674805,0.094482422,0.624267578,0.330989835,-2.358166579,-0.387536371
0.82019043,0.018188477,0.555053711,0.429580953,-2.626893991,-0.424841118
0.909790039,0.08605957,0.529052734,0.490334399,-2.775713287,-0.456550154
0.922119141,0.094970703,0.525024414,0.5666759,-2.820612215,-0.472671134
0.903076172,0.117797852,0.486083984,0.631026589,-2.487534114,-0.521566999
0.948730469,0.145996094,0.472900391,0.566809131,-1.990714817,-0.528628255
0.913452148,0.151977539,0.484008789,0.522309897,-1.954609151,-0.538087673
0.951049805,0.188720703,0.450927734,0.459025057,-2.051468263,-0.584718607
0.961425781,0.19152832,0.397094727,0.299147569,-2.360697973,-0.656130552
0.94128418,0.207275391,0.261108398,0.240525823,-2.445166579,-0.673450613
0.925170898,0.202026367,0.206665039,0.204553388,-2.282224772,-0.658129021
0.896484375,0.174194336,0.15625,0.193495195,-1.91903641,-0.530360261
0.975585938,0.256958008,0.195556641,0.251317553,-1.784739319,-0.503980475
0.982666016,0.239013672,0.176513672,0.357103158,-1.485368722,-0.447490429
1.047607422,0.244140625,0.119506836,0.417323679,-1.125111447,-0.363687979
1.048950195,0.248779297,0.098022461,0.424518166,-0.975625995,-0.3347768
1.034057617,0.248291016,0.059814453,0.425051091,-0.802025689,-0.252972818
1.010864258,0.236328125,0.082397461,0.423585547,-0.811618338,-0.119608346
1.040405273,0.246337891,0.161865234,0.408930111,-0.791900114,-0.054857963
1.031494141,0.209960938,0.071044922,0.40986273,-0.561276837,0.072644334
1.039794922,0.221191406,0.025512695,0.413726435,-0.393139011,0.146720904
1.023071289,0.245727539,0.060791016,0.348309896,-0.08803947,0.252240046
0.994750977,0.257324219,0.077514648,0.234796879,0.022942153,0.328981241
1.007202148,0.261474609,0.070068359,0.18763302,0.045325002,0.340572359
1.013671875,0.260009766,0.006347656,0.129544199,0.207067728,0.300602987
1.041015625,0.237792969,-0.014038086,0.081714184,0.636472016,0.249708653
1.078979492,0.227905273,-0.024658203,0.026689682,0.978210148,0.249708653
1.157470703,0.200073242,0.015869141,-0.143579844,1.812504177,0.315125192
1.154052734,0.219238281,0.016235352,-0.225250594,2.245505709,0.339506509
1.118286133,0.233642578,0.03125,-0.276411391,2.665050886,0.352429939
1.116699219,0.257446289,0.099365234,-0.413506337,3.408880902,0.358158883
1.196289063,0.213745117,0.198974609,-0.669443551,3.981508774,0.354961333
1.168212891,0.17590332,0.20324707,-0.835982601,4.151245375,0.417580016
0.958496094,0.127807617,0.290161133,-1.027702357,4.359485804,0.57479288
0.944824219,0.119873047,0.418945313,-1.058345542,4.359485804,0.6371451
0.979248047,0.09375,0.439453125,-1.006918283,4.359485804,0.673117535
1.020385742,0.141601563,0.614379883,-1.014512464,4.359485804,0.565866387
0.960571289,0.147216797,0.70690918,-1.124961162,4.359485804,0.327382466
0.825439453,0.086914063,0.709472656,-1.113103582,4.359485804,0.200812787
0.851318359,-0.008056641,0.729980469,-1.045955037,4.359485804,0.141391654
0.829833984,-0.060302734,0.778564453,-0.944432831,4.359485804,-0.021017228
0.745483398,0.056762695,0.83605957,-0.909659478,4.359485804,-0.127468989
0.477416992,0.079223633,0.956787109,-0.786553811,4.359485804,-0.32731585
0.380371094,0.0703125,0.938110352,-0.727532372,4.359485804,-0.362488898
0.221313477,-0.024902344,0.879394531,-0.71980496,4.359485804,-0.283749235
0.126220703,-0.082763672,0.910522461,-0.693958099,4.359485804,-0.179295942
0.042724609,-0.082397461,1.026855469,-0.703284286,4.359485804,-0.022882466
-0.038208008,-0.085449219,1.090698242,-0.743786583,4.359485804,-0.004763017
-0.178100586,-0.050048828,1.014770508,-0.754045388,4.203871715,0.057455973
-0.247436523,-0.054931641,1.029663086,-0.739656414,3.751818115,0.138327336
-0.243286133,-0.056152344,1.060302734,-0.712743704,3.605530213,0.191619832
-0.352783203,-0.048217773,0.915527344,-0.683832525,3.618720106,0.342171134
-0.429077148,-0.095581055,0.829101563,-0.817996384,4.002692541,0.472204825
-0.421264648,-0.102050781,0.865600586,-0.862362387,4.25489928,0.511374809
-0.459716797,-0.112426758,0.905029297,-0.888076017,4.359485804,0.505246172
-0.503662109,-0.138305664,0.91418457,-0.877817211,4.359485804,0.498318148
-0.665405273,-0.103393555,0.926879883,-0.820128084,3.502942158,0.493122129
-0.749755859,-0.081176758,0.848754883,-0.858898375,2.600433734,0.53615582
-0.799438477,-0.157226563,0.729003906,-0.913523183,1.536049353,0.669786754
-0.751953125,-0.179443359,0.763061523,-0.920184746,1.548972783,0.719615238
-0.716674805,-0.183227539,0.70324707,-0.912324102,2.042328067,0.768377872
-0.673461914,-0.195678711,0.724121094,-0.884478773,2.306125924,0.781301303
-0.697998047,-0.181274414,0.697021484,-0.786553811,2.82013205,0.809679557
-0.824951172,-0.150268555,0.641235352,-0.722736047,2.957226996,0.838590736
-0.80847168,-0.140136719,0.704956055,-0.611621192,2.673977379,0.855644335
-0.831420898,-0.134521484,0.506225586,-0.580045388,2.344629752,0.855511104
-0.828857422,-0.048706055,0.517211914,-0.545272034,2.376072325,0.835393186
-0.849487305,-0.055908203,0.518066406,-0.473593627,2.553136644,0.828465162
-0.931030273,-0.072509766,0.483642578,-0.434423642,2.502775235,0.807281395
-0.949584961,-0.042236328,0.478881836,-0.390457333,2.065776765,0.774639741
-0.806396484,-0.010253906,0.39074707,-0.351953504,1.849542462,0.664324273
-0.890136719,-0.05480957,0.39440918,-0.303723795,1.923086107,0.638344182
-0.990966797,-0.003173828,0.269897461,-0.275478772,1.916557776,0.526829633
-1.021362305,0.012451172,0.282836914,-0.253495617,1.639170333,0.456616769
-0.931884766,-0.051513672,0.338134766,-0.200336352,1.231083043,0.349765314
-0.95324707,-0.032958984,0.255126953,-0.148642631,1.295700195,0.284748469
-0.970214844,-0.023193359,0.205932617,-0.027402202,1.472231589,0.144988898
-0.974365234,-0.028076172,0.221069336,0.034683556,1.40041995,0.087699464
-0.978881836,-0.015380859,0.153808594,0.120218012,1.216027913,0.017753063
-0.982543945,-0.006469727,0.08581543,0.150195042,1.186050884,0.008693338
-1.054931641,0.015625,0.06262207,0.127945424,0.922785952,-0.032608346
-1.090209961,0.006469727,0.055664063,0.087043434,0.390127452,-0.02661294
-1.063842773,0.018676758,0.063964844,0.084911734,0.234646595,-0.006894717
-1.035522461,0.025878906,0.088378906,0.125147568,0.280744604,0.004296708
-1.049194336,-0.022460938,0.027954102,0.139003617,0.36841076,-0.019285222
-1.101196289,-0.024291992,0.043945313,0.156989835,0.211864052,-0.076308193
-1.135009766,-0.010253906,0.046264648,0.15219351,-0.028218643,-0.098957504
-1.140136719,0.010375977,0.019897461,0.196293051,-0.469480512,-0.107484303
-1.125732422,-0.066772461,0.0625,0.236262423,-0.59058771,-0.120407734
-1.170776367,-0.070922852,0.083862305,0.306874981,-0.868508078,-0.175032542
-1.183837891,-0.03918457,0.101806641,0.330723373,-1.134437634,-0.21020559
-1.143554688,-0.033325195,0.114257813,0.406798411,-1.81058618,-0.275622129
-1.074951172,-0.026489258,0.118774414,0.521244047,-2.120615277,-0.33157925
-1.047363281,-0.026245117,0.123779297,0.60864374,-2.173374848,-0.334910031
-1.098388672,-0.014160156,0.163818359,0.694977584,-2.436373317,-0.278819679
-1.088989258,-0.063354492,0.214477539,0.707101627,-3.071486641,-0.26816118
-1.041137695,-0.052856445,0.314941406,0.738810663,-3.459322783,-0.303200996
-0.884277344,-0.108398438,0.395385742,0.788505915,-3.852754636,-0.34343683
-0.859375,-0.126586914,0.390869141,0.855521229,-4.37182355,-0.430836524
-0.908813477,-0.082397461,0.413208008,0.836069468,-4.37182355,-0.430703293
-0.9375,-0.060791016,0.439086914,0.709233327,-4.37182355,-0.412450613
-0.755126953,-0.012451172,0.643310547,0.596519698,-4.37182355,-0.418978944
-0.677368164,-0.01953125,0.685180664,0.57427008,-4.37182355,-0.447890123
-0.534301758,-0.046508789,0.839233398,0.607311428,-4.37182355,-0.551943722
-0.56640625,-0.045776367,0.843017578,0.62036809,-4.37182355,-0.582320445
-0.576171875,-0.034423828,0.833007813,0.563078656,-4.37182355,-0.560736984
-0.457763672,-0.069702148,0.879516602,0.461689682,-4.37182355,-0.441761486
-0.383056641,-0.071899414,0.923217773,0.418123066,-4.37182355,-0.379675728
-0.201660156,-0.037475586,1.00390625,0.41852276,-4.37182355,-0.378343416
-0.084838867,-0.021362305,1.053222656,0.4690174,-4.37182355,-0.437098393
-0.063720703,-0.007568359,1.050537109,0.531769315,-4.37182355,-0.530893186
-0.065673828,0.039794922,0.993774414,0.588925517,-4.37182355,-0.509576188
-0.040283203,0.047851563,0.983886719,0.638487538,-4.37182355,-0.467075422
0.108642578,0.012451172,1.066162109,0.708300708,-4.37182355,-0.420044794
0.161743164,-0.001831055,1.043579102,0.714296114,-4.37182355,-0.378609878
0.31262207,0.014038086,1.034057617,0.641018932,-4.37182355,-0.38633729
0.394897461,0.017578125,1.041503906,0.432911734,-4.37182355,-0.367285223
0.503051758,0.054931641,0.979125977,0.31113838,-4.37182355,-0.3369085
0.547973633,0.052490234,0.815673828,0.31433593,-4.37182355,-0.31972167
0.615112305,0.06262207,0.77355957,0.381884169,-4.37182355,-0.311061639
0.79699707,0.092041016,0.713134766,0.397338993,-4.37182355,-0.288412328
0.8359375,0.149780273,0.586547852,0.338717247,-4.162384039,-0.309196402
0.889160156,0.158325195,0.503051758,0.341648334,-3.732713288,-0.315724732
0.949829102,0.118164063,0.541870117,0.360034246,-2.921068571,-0.368217841
0.937255859,0.126708984,0.479858398,0.338317553,-2.658869489,-0.36701876
0.921142578,0.189697266,0.52722168,0.32832521,-2.602645906,-0.422309725
0.900024414,0.146606445,0.475952148,0.32619351,-2.693109918,-0.481464396
0.911132813,0.10925293,0.400634766,0.33472031,-2.747867958,-0.53995291
1.000610352,0.108764648,0.319213867,0.375089376,-2.561477452,-0.553808959
1.00390625,0.132202148,0.288085938,0.384682025,-2.482471327,-0.582320445
1.075439453,0.205200195,0.3046875,0.339516634,-2.479939933,-0.673583845
1.040283203,0.196899414,0.281494141,0.230799942,-2.283956778,-0.729008041
1.070556641,0.203735352,0.202270508,0.185368089,-2.004171173,-0.696499618
1.055664063,0.212890625,0.122924805,0.183636083,-1.282057849,-0.542883998
1.027587891,0.223144531,0.161621094,0.219475287,-0.964967496,-0.491856433
0.970458984,0.209350586,0.243408203,0.328991366,-0.626560145,-0.352230092
1.01184082,0.187255859,0.254516602,0.351507446,-0.667062442,-0.316657351
1.069580078,0.208129883,0.161376953,0.369626895,-0.951377909,-0.317057045
1.005371094,0.187744141,0.110717773,0.377620769,-1.085142075,-0.294407734
0.950439453,0.230224609,0.086425781,0.377487538,-1.219172703,-0.244845712
1.042480469,0.223022461,0.095581055,0.379752469,-1.148426914,-0.242714013
1.03137207,0.247436523,0.029541016,0.377487538,-0.738740849,-0.163441424
1.016845703,0.249633789,-0.01965332,0.365629958,-0.496659685,-0.088432236
0.983520508,0.257080078,0.052978516,0.375355838,-0.171841921,0.054258423
1.009277344,0.248779297,0.059448242,0.370692745,-0.074449884,0.095027182
1.040161133,0.219482422,-0.009765625,0.337518166,0.085827299,0.167371746
1.034912109,0.213256836,-0.03894043,0.322063342,0.169896212,0.191486601
1.020263672,0.223510742,-0.044799805,0.304476818,0.243306625,0.21933193
1.023681641,0.225952148,-0.000244141,0.24878616,0.288472016,0.307531011
1.050415039,0.248413086,0.06262207,0.149395654,0.316317345,0.391999618
1.088989258,0.252197266,-0.001342773,0.087043434,0.41024537,0.438097627
1.103027344,0.246582031,-0.047485352,-0.008749828,0.807940623,0.483396249
1.060791016,0.234863281,-0.060546875,-0.072434362,1.383099889,0.557339587
0.997558594,0.216064453,-0.020141602,-0.077896842,1.684202492,0.65433193
1.045898438,0.194824219,0.08215332,-0.125193933,2.378603718,0.837658118
1.185913086,0.169555664,0.122314453,-0.208863152,2.778430671,0.846584611
1.286254883,0.18359375,0.145629883,-0.441484898,3.625781362,0.818872513
1.133789063,0.065429688,0.223022461,-0.565656414,4.09488856,0.863771441
1.095947266,0.091064453,0.30090332,-0.775229156,4.359485804,1.044299772
1.034057617,0.080566406,0.474975586,-0.870622724,4.359485804,1.011658118
0.990234375,0.033203125,0.516113281,-1.084592096,4.359485804,0.885887827
0.907104492,0.0234375,0.529052734,-1.229014761,4.359485804,0.773174197
0.869140625,0.065795898,0.536376953,-1.24180496,4.359485804,0.674583079
0.799194336,0.01550293,0.766723633,-1.288835588,4.359485804,0.431169602
0.512695313,0.030517578,0.912719727,-1.331736048,4.359485804,0.268361026
0.427490234,0.048339844,0.780395508,-1.288569126,4.359485804,0.173233921
0.404907227,-0.078125,0.734619141,-1.249932066,4.359485804,0.192685682
0.397827148,-0.10559082,0.857177734,-1.126693168,4.359485804,0.276621363
0.245483398,-0.154052734,0.951171875,-1.088589034,4.359485804,0.339240046
0.159545898,-0.155029297,0.950805664,-1.188645695,4.359485804,0.376411563
0.184814453,-0.146728516,0.979003906,-1.064340948,4.359485804,0.34390314
0.133666992,-0.132202148,1.091308594,-0.991196997,4.359485804,0.295540199
-0.118041992,-0.172119141,1.036499023,-0.876085205,4.045726232,0.329114472
-0.246948242,-0.234008789,1.130249023,-0.932841713,3.362383199,0.291143569
-0.282958984,-0.207519531,1.094360352,-0.950428237,3.278847211,0.23651876
-0.263183594,-0.215209961,0.949462891,-0.873687043,3.497612908,0.177897014
-0.315063477,-0.240966797,1.002075195,-0.772298068,3.7039881,0.184825039
-0.379638672,-0.234741211,0.945922852,-0.564990258,4.11847049,0.238117535
-0.40612793,-0.221801758,1.002563477,-0.212460395,4.173361761,0.21826608
-0.521118164,-0.262573242,1.001586914,-0.029134208,4.315119801,0.090897014
-0.557739258,-0.268554688,0.6171875,-0.035129614,4.359485804,0.111681087
-0.676391602,-0.248901367,0.581420898,-0.038726858,4.359485804,0.21933193
-0.764282227,-0.263427734,0.660888672,-0.035129614,4.346695605,0.437564702
-0.841430664,-0.240600586,0.600097656,-0.012746766,3.88758075,0.510042497
-0.877807617,-0.250854492,0.483520508,-0.123328695,2.595504178,0.726809725
-0.946777344,-0.260986328,0.400634766,-0.317046919,1.472498051,0.969423814
-0.928466797,-0.230834961,0.502685547,-0.349821804,1.168064666,1.071345714
-0.880004883,-0.243530273,0.507324219,-0.317713075,1.171795141,1.235886296
-0.875488281,-0.220092773,0.437988281,-0.307587501,1.36071704,1.311028715
-0.933227539,-0.217041016,0.39465332,-0.324374638,1.775865586,1.440129788
-0.988769531,-0.201538086,0.497558594,-0.336365449,1.589075387,1.460247705
-0.968505859,-0.153564453,0.641845703,-0.336365449,1.069606779,1.414016464
-0.923828125,-0.088012695,0.537231445,-0.340362386,0.366945216,1.316757659
-0.835571289,-0.010009766,0.445678711,-0.287602815,0.513766044,1.272391656
-0.846313477,0.01171875,0.512695313,-0.151307256,1.248536336,1.128501916
-0.887329102,-0.014404297,0.470581055,-0.072034668,1.623449047,0.92492458
-0.896850586,0.037719727,0.389160156,-0.043789645,1.637438327,0.830330399
-0.888549805,0.053344727,0.38293457,0.022426282,1.628378603,0.649402375
-0.897705078,0.035400391,0.358398438,0.109026588,1.704986566,0.476468224
-0.948242188,0.045043945,0.361450195,0.17470959,1.713646597,0.39226608
-0.913452148,0.080688477,0.320922852,0.319265486,1.714845678,0.213602987
-0.946655273,0.026367188,0.180786133,0.386680494,1.765473549,0.116743875
-1.000610352,0.002319336,0.079956055,0.419055685,1.69366191,0.039869449
-1.038696289,-0.01940918,0.062988281,0.394940831,1.407347974,0.040402374
-1.040405273,-0.01550293,0.05090332,0.303810662,0.682836488,0.061186447
-1.03527832,0.065795898,-0.007568359,0.276498258,0.518562368,0.039869449
-1.046630859,0.077270508,-0.017456055,0.211081719,0.465269872,-0.009159648
-1.108886719,0.105712891,-0.028564453,0.146464567,0.335902337,-0.019818147
-1.105224609,0.110229492,-0.015380859,0.011634551,-0.240056316,-0.003297473
-0.982177734,0.056396484,0.079711914,-0.034996383,-0.462019563,-0.009692573
-0.954223633,0.031494141,0.090209961,-0.047653351,-0.320661216,-0.059387826
-0.994384766,0.043212891,0.11730957,-0.025803427,0.000692536,-0.125070827
-1.010375977,0.039916992,0.144897461,-0.01860894,-0.025154325,-0.124937596
-1.037475586,0.028686523,0.1328125,0.009769314,-0.224601492,-0.092162711
-1.038574219,0.027954102,0.168457031,0.028554919,-0.263771477,-0.089764548
-1.068359375,0.014770508,0.113037109,0.060263954,-0.422183422,-0.131732389
-1.119018555,0.013916016,0.051879883,0.053602392,-0.64321405,-0.157179556
-1.21484375,0.047973633,0.026977539,0.018695807,-1.535996593,-0.208606815
-1.278198242,0.049438477,-0.016845703,-0.056446613,-2.615302873,-0.238450613
-1.139648438,0.007324219,0.19152832,-0.079095924,-3.052701036,-0.271225498
-0.98059082,-0.03112793,0.396484375,-0.005285816,-3.637852645,-0.418312788
-0.944091797,-0.058105469,0.336914063,0.077184322,-4.200621405,-0.564200996
-0.971069336,0.024047852,0.378417969,0.040279268,-4.37182355,-0.665456739
-0.908081055,-0.007202148,0.50390625,0.041478349,-4.37182355,-0.720614473
-0.815185547,-0.059326172,0.573608398,0.043876512,-4.37182355,-0.725011104
-0.662719727,-0.047363281,0.650878906,0.140735623,-4.37182355,-0.675449082
-0.556396484,-0.109375,0.718383789,0.323129192,-4.074051727,-0.578190276
-0.555053711,-0.117431641,0.78503418,0.377887232,-3.960005785,-0.550211716
-0.632568359,-0.058227539,0.827514648,0.366296114,-3.947348817,-0.582586907
-0.576904297,-0.013427734,0.956420898,0.318732561,-4.097367194,-0.62908461
-0.518676758,-0.026611328,0.982666016,0.354704996,-4.37182355,-0.613629786
-0.442138672,-0.036743164,0.930419922,0.423052622,-4.37182355,-0.55713974
-0.321533203,-0.021240234,0.891967773,0.431579422,-4.37182355,-0.545548622
-0.298461914,-0.022094727,0.977172852,0.39600668,-4.37182355,-0.590714013
-0.249267578,-0.044921875,1.032592773,0.24878616,-4.37182355,-0.70529288
-0.081787109,-0.008422852,0.983642578,0.177240983,-4.37182355,-0.752856433
0.038085938,-0.008911133,0.930175781,0.194960738,-4.37182355,-0.769643569
0.196289063,-0.025878906,0.927856445,0.230666711,-4.37182355,-0.757652758
0.207641602,-0.033691406,0.92956543,0.208283862,-4.37182355,-0.663991195
0.423828125,-0.039550781,0.915771484,0.208550325,-4.37182355,-0.620158117
0.638916016,-0.046386719,0.911254883,0.242790754,-4.37182355,-0.652266846
0.647827148,-0.037475586,0.860473633,0.366029651,-4.37182355,-0.707291349
0.650268555,-0.000488281,0.885986328,0.433178197,-4.37182355,-0.680378638
0.66796875,0.029052734,0.877685547,0.500593204,-4.37182355,-0.573393952
0.730834961,0.081787109,0.757324219,0.483273143,-4.37182355,-0.571395483
0.768310547,0.081176758,0.71875,0.396539605,-4.281492768,-0.61189778
0.878540039,0.098632813,0.581665039,0.378420157,-4.032350349,-0.624421517
0.915039063,0.117919922,0.475952148,0.496063342,-3.483837331,-0.563801302
0.876708984,0.080688477,0.465942383,0.603847416,-3.223237024,-0.506378638
0.869140625,0.081054688,0.46875,0.767055686,-2.882431511,-0.412717076
0.993164063,0.041381836,0.398071289,0.821547263,-2.822077759,-0.408320445
1.048095703,0.034545898,0.362915039,0.909080188,-2.762656626,-0.465343416
1.011962891,0.018798828,0.298950195,0.935193511,-2.650742383,-0.480132083
0.990844727,0.083984375,0.283813477,0.959175135,-2.314866426,-0.638544028
1.053955078,0.109375,0.244628906,0.919472225,-2.105959841,-0.673983538
1.060668945,0.215454102,0.312988281,0.854188917,-2.07158618,-0.735936065
1.050292969,0.188110352,0.252197266,0.84166518,-1.953942995,-0.744462865
1.021728516,0.165283203,0.119506836,0.8276759,-1.624328906,-0.710355667
0.993164063,0.201904297,0.124389648,0.799564108,-1.468581585,-0.67198507
0.997924805,0.252563477,0.131591797,0.731882638,-1.335083882,-0.614962099
0.978759766,0.264648438,0.12109375,0.661669774,-1.168544832,-0.453219373
1.047119141,0.229003906,0.078735352,0.644882638,-1.082610681,-0.393665008
1.037719727,0.180297852,0.03125,0.638487538,-0.823342687,-0.301202527
1.028808594,0.17590332,-0.014892578,0.607711122,-0.557546362,-0.17050268
1.036865234,0.225952148,0.063476563,0.591190448,-0.446031814,-0.106818147
1.044555664,0.250488281,0.054199219,0.507121535,-0.233794447,0.03787098
1.06652832,0.246826172,0.043701172,0.465420157,-0.124411599,0.087832695
1.05871582,0.235107422,-0.00378418,0.367628426,-0.018093069,0.135795942
1.054931641,0.232299805,-0.012084961,0.313403311,-0.005702564,0.159111409
1.033569336,0.236206055,-0.015869141,0.220141443,0.062911525,0.209872512
1.05078125,0.237304688,-0.014526367,0.165383403,0.287939091,0.221330398
1.063598633,0.225830078,-0.027587891,0.142067936,0.485654252,0.201478944
1.118041992,0.233154297,-0.054443359,0.093305302,1.047756856,0.138194104
1.143554688,0.250854492,-0.031494141,0.064527354,1.470099889,0.119408499
1.208129883,0.236694336,0.072387695,0.009769314,2.548873244,0.098224732
1.242797852,0.208007813,0.082397461,-0.01647724,3.122167272,0.103021057
1.233398438,0.153198242,0.069335938,-0.042857026,4.022144303,0.013622894
1.166625977,0.121826172,0.117553711,-0.056713075,4.359485804,-0.15225
1.034179688,0.173095703,0.172851563,-0.158901437,4.359485804,-0.205542496
1.017211914,0.240966797,0.453857422,-0.2376411,4.359485804,-0.35302948
1.037109375,0.254760742,0.528686523,-0.295196996,4.359485804,-0.446291348
0.892822266,0.234863281,0.544799805,-0.369406797,4.359485804,-0.600972819
0.755249023,0.181274414,0.634155273,-0.395653351,4.359485804,-0.660527183
0.751708984,0.269165039,0.659667969,-0.359547685,4.359485804,-0.752456739
0.757324219,0.17175293,0.743286133,-0.277610472,4.359485804,-0.914599159
0.603515625,0.202270508,0.80480957,-0.217389951,4.359485804,-0.929254595
0.486572266,0.20703125,0.853515625,-0.127991789,4.359485804,-0.924991196
0.407714844,0.218017578,0.899780273,-0.052449675,4.359485804,-0.900210185
0.376220703,0.199829102,0.901123047,0.127279268,4.359485804,-0.798021823
0.272827148,0.262573242,0.982055664,0.268637614,4.359485804,-0.658262252
0.218505859,0.284790039,1.01550293,0.285691213,4.359485804,-0.564733921
0.152954102,0.252197266,1.038574219,0.225737155,4.359485804,-0.398328102
0.177001953,0.22644043,1.034423828,0.050538074,4.270220873,-0.332911562
0.114990234,0.247436523,1.020141602,-0.065506337,4.246772174,-0.335043262
-0.026733398,0.290527344,1.031860352,-0.263621192,4.272352572,-0.376078484
-0.156860352,0.28503418,0.92980957,-0.359547685,4.293669571,-0.408720138
-0.231811523,0.225341797,0.862304688,-0.481853964,4.264092236,-0.400060108
-0.331298828,0.229858398,0.840454102,-0.485317976,4.20120709,-0.374346478
-0.376342773,0.235961914,0.877319336,-0.46426744,4.19587784,-0.388202527
-0.474853516,0.197021484,0.868652344,-0.48145427,4.202139709,-0.393931471
-0.544555664,0.172119141,0.795043945,-0.481720733,4.044527151,-0.33797435
-0.576171875,0.179443359,0.781982422,-0.499040794,3.935011071,-0.347167305
-0.644897461,0.200683594,0.693115234,-0.508899906,3.821897748,-0.348099924
-0.70300293,0.189697266,0.664672852,-0.543939722,3.652960535,-0.317323507
-0.71887207,0.165649414,0.760498047,-0.60602548,3.535450581,-0.37234801
-0.784667969,0.136962891,0.6953125,-0.652523183,3.362116737,-0.371148929
-0.856445313,0.137573242,0.563598633,-0.775229156,2.828525618,-0.350231624
-0.815307617,0.102416992,0.576293945,-0.852236813,2.376871712,-0.35409533
-0.769775391,0.040405273,0.541870117,-0.872221499,2.253632815,-0.355427642
-0.888916016,0.06628418,0.475952148,-0.972411392,2.231782891,-0.397795177
-0.953369141,0.163696289,0.485229492,-0.973477242,2.260294377,-0.377410797
-0.970581055,0.129882813,0.39453125,-0.997325634,2.162502646,-0.368617535
-0.932250977,0.082641602,0.411743164,-1.006918283,2.070173396,-0.363021823
-0.837890625,0.006225586,0.411865234,-0.964017824,1.951464361,-0.352629786
-0.890380859,0.022583008,0.281738281,-0.919385358,2.012883963,-0.368217841
-1.008789063,0.074951172,0.317871094,-0.980005573,2.105213213,-0.481864089
-0.983886719,0.065673828,0.318481445,-0.90353084,2.101349507,-0.53022703
-1.034179688,0.013793945,0.282958984,-0.881947379,2.013283657,-0.483329633
-1.059204102,-0.07019043,0.221557617,-0.88740986,1.776931436,-0.399793645
-1.025024414,-0.041137695,0.191894531,-0.880082142,1.681138174,-0.323318913
-0.996459961,-0.060180664,0.248779297,-0.815198528,1.586410762,-0.367951379
-0.893676758,0.025878906,0.201538086,-0.811068359,1.491416887,-0.41431585
-1.04284668,-0.023681641,0.140258789,-0.656386889,1.182986565,-0.315857964
-1.079101563,-0.02331543,0.178466797,-0.615884592,1.022043227,-0.290410797
-1.094360352,-0.020874023,0.086303711,-0.574449676,0.863231588,-0.237251532
-1.102783203,-0.041015625,0.030273438,-0.528618129,0.628877835,-0.08563438
-1.055053711,-0.009033203,0.162353516,-0.460803428,0.538280592,0.010025651
-1.041015625,-0.008666992,0.19140625,-0.415504806,0.502041694,0.027612175
-0.969848633,-0.067993164,0.153930664,-0.298527777,0.449681817,0.021083844
-0.986450195,-0.061157227,0.14453125,-0.262022417,0.481524083,0.0174866
-1.010375977,-0.091796875,0.104736328,-0.183282754,0.582380132,0.035872512
-1.026000977,-0.041992188,0.129516602,-0.096016291,0.67337707,0.04426608
-1.024658203,-0.053833008,0.175048828,0.033617706,0.618086105,0.020817381
-1.026611328,-0.070800781,0.162841797,0.091040371,0.509369413,0.0196183
-1.062866211,-0.06237793,0.118041992,0.147530417,0.192945216,0.021083844
-1.088134766,-0.063232422,0.079345703,0.152726435,0.047190239,0.012157351
-1.044555664,-0.032958984,0.083618164,0.164983709,-0.068321247,-0.002498086
-1.055908203,-0.015991211,0.088256836,0.243723372,-0.232861829,-0.026080015
-1.082275391,-0.024414063,0.060302734,0.291553388,-0.438304402,-0.062851838
-1.085205078,-0.022094727,0.005371094,0.274100095,-0.614302871,-0.082836524
-1.093994141,-0.012939453,-0.001708984,0.229067936,-1.144030283,-0.108683385
-1.088134766,-0.009033203,0.016723633,0.201888763,-1.463119105,-0.113746172
-1.0390625,-0.006591797,0.111328125,0.242790754,-2.101829672,-0.1586451
-1.078491211,-0.009765625,0.204833984,0.293818319,-2.47101344,-0.187289816
-1.080322266,-0.028808594,0.191162109,0.40346763,-3.430145141,-0.250841118
-1.064331055,-0.046875,0.250366211,0.431979115,-3.925632125,-0.263498086
-1.069213867,-0.047485352,0.26159668,0.420387998,-4.37182355,-0.26496363
-0.963500977,-0.042236328,0.380737305,0.423452316,-4.37182355,-0.307730858
-0.939331055,-0.041015625,0.471557617,0.441305302,-4.37182355,-0.401259189
-0.810546875,-0.105102539,0.630371094,0.465286926,-4.37182355,-0.45508461
-0.727661133,-0.130615234,0.705688477,0.567342056,-4.37182355,-0.562335759
-0.750610352,-0.140258789,0.632202148,0.587459973,-4.335851115,-0.581254595
-0.770874023,-0.122070313,0.601806641,0.468351244,-3.856884805,-0.560070828
-0.633666992,-0.097167969,0.729248047,0.338184322,-3.796131359,-0.528228561
-0.468505859,-0.092895508,0.876220703,0.35190714,-4.243255402,-0.558472053
-0.506958008,-0.11730957,0.89831543,0.302078656,-4.37182355,-0.583785989
-0.53515625,-0.105957031,0.948364258,0.250384934,-4.37182355,-0.602571593
-0.478759766,-0.043701172,0.994628906,0.122349712,-4.37182355,-0.643340353
-0.423950195,-0.032470703,0.964355469,0.086776971,-4.37182355,-0.644805897
-0.228149414,-0.065063477,0.931762695,0.149395654,-4.37182355,-0.534756892
-0.137695313,-0.051391602,0.902832031,0.174842821,-4.37182355,-0.486926877
0.116333008,-0.044433594,0.989379883,0.200156757,-4.37182355,-0.546747704
0.208007813,-0.083618164,1.024902344,0.182303771,-4.37182355,-0.612563937
0.303222656,-0.129516602,1.042724609,0.17790714,-4.37182355,-0.637344947
0.326049805,-0.12109375,1.006713867,0.21334665,-4.37182355,-0.603770675
0.346801758,-0.056396484,0.965820313,0.3014125,-4.37182355,-0.460147397
0.438598633,-0.049560547,1.022094727,0.257845884,-4.202486643,-0.398727795
0.569580078,-0.04284668,1.045654297,0.172311427,-4.17317577,-0.400992726
0.603515625,-0.041259766,0.998901367,0.007371152,-4.145330441,-0.405389357
0.725097656,-0.022827148,0.831787109,-0.02926744,-4.102429981,-0.420311256
0.80480957,-0.027587891,0.810302734,-0.073100518,-3.803858771,-0.436698699
0.833129883,-0.019775391,0.79675293,-0.090287348,-3.578431512,-0.45828216
0.80859375,-0.012939453,0.769165039,-0.150507869,-3.174874084,-0.504380169
0.855834961,-0.009887695,0.759643555,-0.183149522,-3.046039474,-0.500916157
0.866943359,0.019775391,0.683959961,-0.170092861,-2.839930745,-0.523299005
0.892822266,0.012207031,0.532592773,-0.131189339,-2.689246212,-0.567531777
0.975952148,0.003051758,0.518798828,-0.07976208,-2.266636717,-0.63761141
0.940917969,0.029785156,0.481689453,-0.072834055,-1.864811295,-0.644539434
0.925292969,0.020385742,0.502929688,-0.08189378,-1.735976685,-0.602038669
0.896972656,0.014770508,0.53918457,-0.140515525,-1.552250805,-0.482663477
0.943725586,0.014038086,0.60168457,-0.173690104,-1.463119105,-0.452020292
1.008911133,0.014892578,0.408569336,-0.201935127,-1.155221708,-0.439896249
1.007324219,0.000854492,0.377075195,-0.150374637,-0.890491232,-0.424841118
0.93737793,0.053100586,0.384765625,-0.085757486,-0.321194141,-0.385004978
0.907958984,0.056030273,0.449584961,-0.054847838,-0.179702564,-0.375145866
0.898681641,0.019287109,0.482055664,-0.028468052,-0.411658154,-0.360357198
0.934326172,0.04284668,0.431396484,-0.06044355,-0.654538705,-0.296406203
0.976928711,0.141845703,0.44519043,-0.158768205,-0.92033503,-0.250707887
0.958984375,0.08190918,0.447021484,-0.188478772,-0.900883269,-0.261233155
0.983886719,0.049560547,0.396606445,-0.204200058,-0.849855704,-0.216067764
0.986938477,-0.017944336,0.387573242,-0.175288879,-0.86118036,-0.169969755
0.954467773,0.059570313,0.408935547,-0.081360855,-0.944050191,-0.061253063
0.995849609,0.057861328,0.348632813,-0.093884591,-1.037711753,-0.093095329
1.098999023,0.067016602,0.276855469,-0.1463777,-1.343344219,-0.209805896
1.009399414,0.088500977,0.262573242,-0.169293473,-1.36492768,-0.287879403
0.959960938,-0.003295898,0.283081055,-0.117066827,-1.123779135,-0.308130552
0.975585938,-0.009277344,0.236328125,-0.022605878,-0.439503483,-0.300536371
0.924194336,0.040649414,0.255249023,0.022559513,-0.345042533,-0.210605284
0.942626953,0.094970703,0.319335938,0.060130723,-0.683183422,-0.146254594
0.998535156,0.126953125,0.282226563,0.056533479,-0.803091539,-0.130666539
1.104980469,0.068725586,0.119140625,0.052536542,-0.728215581,-0.085367917
1.128173828,0.112426758,0.124633789,0.065060279,-0.509183422,-0.036871746
1.133789063,0.13293457,0.178710938,0.035749406,0.02147661,-0.023815084
1.118164063,0.09777832,0.131347656,-0.026469583,0.248369412,-0.03727144
1.109130859,0.094604492,0.146606445,-0.072967286,0.494447514,-0.01262366
1.04309082,0.104614258,0.234619141,-0.059777394,0.410511832,-0.015155054
1.03894043,0.108642578,0.237304688,-0.049518588,0.233713976,-0.041268377
1.051879883,0.095947266,0.174316406,-0.061642631,0.345761449,-0.018219372
1.004272461,0.10546875,0.159057617,-0.022072953,0.358285186,0.030010337
0.932495117,0.166381836,0.211791992,0.161786159,0.067174925,0.060520291
0.924194336,0.248901367,0.148071289,0.31007253,-0.099763819,0.07437634
0.968139648,0.205444336,0.151367188,0.563211887,-0.321860298,0.094494257
1.016845703,0.123657227,0.10949707,0.773317554,-0.33931359,0.185491195
1.05480957,0.053833008,0.142822266,0.858985242,-0.340512671,0.274223201
1.074829102,0.060913086,0.141357422,0.958508978,-0.332652028,0.430103753
1.085327148,0.067749023,0.167236328,0.972231796,-0.237924616,0.482996555
1.081665039,0.068725586,0.200927734,0.929064874,-0.03754483,0.552676494
1.081176758,0.133178711,0.234619141,0.874306834,-0.026619868,0.566399312
1.088500977,0.12878418,0.208618164,0.726819851,0.066775231,0.527895483
1.072875977,0.099731445,0.226806641,0.538697339,0.28247661,0.472737749
1.052856445,0.076782227,0.239990234,0.454628426,0.300196365,0.44489242
1.041748047,0.076171875,0.243408203,0.335652928,0.270885492,0.39226608
1.030639648,0.073364258,0.24230957,0.297815256,0.251566962,0.35682657
0.984863281,0.061401367,0.270141602,0.248652928,0.121000346,0.298604518
0.971435547,0.02722168,0.280883789,0.174043434,-0.091103789,0.216933768
0.987182617,0.013427734,0.275268555,0.125414031,-0.064057847,0.161642803
1.004760742,0.006713867,0.259643555,0.005106221,0.146580744,0.049995023
0.995239258,0.026367188,0.26550293,-0.101079078,0.189347973,-0.00729441
0.986328125,0.014038086,0.279052734,-0.139582907,0.119534803,-0.00622856
0.986816406,0.020996094,0.270263672,-0.170759017,-0.051267648,0.008293645
0.998779297,-0.017211914,0.248413086,-0.186480303,-0.01716045,0.041601455
0.999633789,-0.020263672,0.231689453,-0.18394891,0.004689473,0.058388591
0.993041992,-0.007446289,0.22668457,-0.163830993,0.005222398,0.07863974
0.98449707,0.001098633,0.230712891,-0.112803427,-0.076714815,0.077040965
0.980712891,-0.001464844,0.224853516,-0.085091329,-0.12028143,0.067048622
0.981933594,-0.017822266,0.219970703,-0.035129614,-0.127342686,0.044932236
0.999023438,-0.037719727,0.205810547,-0.015677853,-0.121480512,0.043333461
1.014770508,-0.024658203,0.199707031,0.017363495,-0.115618337,0.036671899
1.026245117,-0.007568359,0.1875,0.022825976,-0.119881737,0.024014931
1.024658203,0.007568359,0.190551758,0.031752469,-0.053132885,-0.001565467
1.015136719,0.02331543,0.197387695,0.054801473,-0.038344218,0.002298239
1.004882813,0.018676758,0.198730469,0.118619238,-0.136535642,0.043466692
1.036010742,0.02331543,0.17199707,0.151793816,-0.189694907,0.064916922
1.041137695,0.009643555,0.165039063,0.180838227,-0.132139011,0.083835758
1.037109375,0.004516602,0.163452148,0.169646803,-0.055930741,0.085967458
1.029052734,0.006225586,0.161010742,0.164051091,-0.000506545,0.075841884
1.029907227,0.012329102,0.163330078,0.174443127,0.005222398,0.065716309
1.039428711,-0.000976563,0.168945313,0.170979115,0.029337253,0.032941424
1.057861328,-0.036132813,0.16394043,0.141668242,0.036798202,0.018685681
1.065917969,-0.049560547,0.161865234,0.068524291,0.057182582,0.007893951
1.058349609,-0.047119141,0.174560547,0.04907253,0.07410295,0.005895482
1.036743164,-0.018798828,0.176757813,0.074253234,0.051320407,0.010292113
1.007568359,0.020019531,0.18359375,0.134074061,-0.062858766,0.026946018
1.00390625,0.03125,0.181518555,0.15219351,-0.118149731,0.035472818
1.005126953,0.024902344,0.180786133,0.170845884,-0.195956775,0.042267611
1.021240234,0.021728516,0.171630859,0.162185853,-0.221537173,-0.004230092
1.029296875,0.001708984,0.141723633,0.147663648,-0.171708689,-0.047530245
1.034179688,0.002197266,0.136474609,0.057332867,-0.054065504,-0.175299005
1.040649414,0.006835938,0.147338867,0.002175133,0.002824236,-0.234720138
1.055053711,-0.003295898,0.147949219,-0.083359323,0.028271403,-0.294540965
1.052490234,0.010253906,0.15625,-0.09588306,0.03226834,-0.28428216
1.041137695,0.046386719,0.153930664,-0.079229155,0.028138172,-0.21233729
1.035644531,0.042724609,0.146362305,-0.065639568,0.03759759,-0.122939127
1.02746582,0.045776367,0.149536133,-0.053115832,0.0687737,-0.079638974
1.011230469,0.032714844,0.166137695,-0.011547685,0.026805859,0.013356432
1.008300781,0.030395508,0.165161133,0.00830377,-0.040342686,0.051460567
1.006713867,0.027587891,0.149536133,0.026956144,-0.100163513,0.088232389
1.002441406,0.031616211,0.149291992,0.022825976,-0.099763819,0.068247703
1.012573242,0.004882813,0.15246582,-0.004219966,-0.030883268,-0.001299005
1.015380859,0.007202148,0.154785156,-0.014745234,0.000692536,-0.034606815
1.018310547,0.041992188,0.16003418,-0.026602815,0.012816579,-0.075908499
1.020629883,0.041992188,0.166381836,-0.030599752,0.018545522,-0.08030513
1.033935547,0.038574219,0.174438477,-0.029134208,0.003357161,-0.070179556
1.037231445,0.026245117,0.175170898,-0.022605878,-0.017560144,-0.055390888
1.044799805,0.022460938,0.184082031,-0.010348603,-0.056463666,-0.020883997
1.040283203,0.001464844,0.173828125,-0.017143397,-0.075782196,-0.001965161
1.035644531,0.017944336,0.164794922,-0.051117363,-0.096166576,0.008160413
1.032958984,0.021606445,0.151733398,-0.094950441,-0.074849577,-0.023815084
1.020874023,0.013793945,0.155151367,-0.11306989,-0.020358,-0.040735452
1.012573242,0.010620117,0.153442383,-0.138916751,0.017612904,-0.045798239
1.004150391,0.004394531,0.153808594,-0.141981069,-0.043140542,-0.037004977
1.010864258,0.004882813,0.140869141,-0.132121957,-0.060993528,-0.041534839
1.009521484,-0.004638672,0.141723633,-0.117200058,-0.007567801,-0.040602221
1.004272461,0.006225586,0.147949219,-0.073899905,-0.05899506,-0.032208652
1.011230469,0.027099609,0.130615234,-0.042857026,-0.147993529,-0.035539433
1.018676758,0.029785156,0.125366211,-0.037661008,-0.137867954,-0.052593032
1.03894043,0.03527832,0.11706543,-0.041924407,-0.077780665,-0.111481241
1.040161133,0.060913086,0.122802734,-0.034196995,-0.037145136,-0.138527182
1.041381836,0.062744141,0.120849609,-0.03472992,-0.063658153,-0.134397014
1.050292969,0.066162109,0.113525391,-0.035396077,-0.091903176,-0.120540965
1.057006836,0.060668945,0.111816406,-0.029134208,-0.100829669,-0.085501149
1.060058594,0.044555664,0.108032227,0.000176665,-0.067788322,-0.047929939
1.055053711,0.057373047,0.102294922,0.013766251,-0.043407005,-0.033940659
1.05065918,0.063110352,0.103149414,0.024158288,-0.012763819,-0.007427642
1.03894043,0.063354492,0.106567383,0.025224138,-0.011298276,0.001232389
1.037475586,0.056396484,0.098999023,0.041211887,0.013349504,0.009226263
1.026855469,0.052612305,0.102416992,0.051603924,0.041727758,0.008293645
1.025024414,0.052612305,0.105102539,0.053069467,0.056649657,-0.006894717
1.015625,0.067626953,0.107177734,0.043476818,0.052785951,-0.015421516
1.020263672,0.066650391,0.10925293,0.022825976,0.066242306,-0.019684916
1.013916016,0.086914063,0.122680664,0.016430876,0.060246901,0.000699464
1.013427734,0.08215332,0.123901367,0.014565639,0.018545522,0.019351838
1.030029297,0.073608398,0.121337891,-0.004086735,0.034133577,0.018285988
1.041748047,0.04309082,0.110595703,-0.071102049,0.11500494,0.023082312
1.042480469,0.031494141,0.114013672,-0.101878466,0.132591464,0.032142037
1.032104492,0.041748047,0.124145508,-0.118132677,0.137121326,0.056656585
1.01574707,0.031005859,0.121459961,-0.112936659,0.134190239,0.072777565
1.010131836,0.032836914,0.120361328,-0.103610472,0.118868646,0.097825038
1.003051758,0.018432617,0.118774414,-0.097481835,0.102214741,0.09795827
0.999023438,0.017211914,0.120117188,-0.079495617,0.041994221,0.069580015
0.994506836,0.020019531,0.112548828,-0.073500211,0.00975226,0.046930705
0.994384766,0.025756836,0.100463867,-0.07336698,-0.007301338,-0.013423047
1.012695313,0.030029297,0.095336914,-0.084425173,0.01721321,-0.050461332
1.014160156,0.043823242,0.10534668,-0.086023948,0.122599121,-0.10068951
1.016845703,0.041870117,0.127807617,-0.073500211,0.129127452,-0.10601876
1.020385742,0.047363281,0.124389648,-0.036595158,0.032135109,-0.066182619
1.027954102,0.055664063,0.124511719,-0.018076015,0.004955936,-0.036871746
1.027954102,0.068237305,0.124389648,0.012034245,0.01827906,0.015221669
1.019775391,0.061035156,0.137084961,0.046674368,-0.032748505,0.073177259
1.034667969,0.036132813,0.135620117,0.052003617,-0.066722472,0.130733155
1.042358398,0.014038086,0.131103516,0.035749406,-0.064457541,0.145122129
1.047241211,0.002929688,0.125488281,-0.021140334,-0.000506545,0.132065467
1.041870117,0.014648438,0.106445313,-0.048053044,0.052253026,0.109416156
1.031005859,0.030883789,0.114868164,-0.075232218,0.105678754,0.050394717
1.022705078,0.047241211,0.103149414,-0.081627317,0.107943685,0.02707925
1.025390625,0.042114258,0.102539063,-0.087755954,0.099683348,-0.005828867
1.033325195,0.004394531,0.106933594,-0.088288879,0.091156548,-0.016753829
1.042236328,-0.00390625,0.108154297,-0.067238343,0.015347972,-0.035672665
1.043701172,0.006591797,0.096801758,-0.0529826,-0.013030282,-0.046597626
1.041259766,0.012695313,0.102783203,-0.027935127,0.017479672,-0.061119832
1.029296875,0.019042969,0.098144531,-0.019008634,0.011084573,-0.067115237
1.030639648,0.025756836,0.093994141,-0.00355381,-0.004636714,-0.068580781
1.038452148,0.03527832,0.109130859,0.001109283,0.00109223,-0.071511868
1.044189453,0.028442383,0.106445313,0.020960738,0.003756855,-0.065916156
1.048095703,0.022705078,0.12097168,0.048939299,0.003090698,-0.051660414
1.044677734,0.012451172,0.123657227,0.061463035,0.017346441,-0.044332695
1.047363281,0.017944336,0.119750977,0.05879841,0.040262214,-0.039269908
1.051513672,0.018920898,0.135864258,0.072920922,0.103280591,-0.01795291
1.051879883,0.026977539,0.153930664,0.121816787,0.069972781,0.02175
1.048583984,0.018188477,0.151611328,0.137937767,0.029870178,0.04426608
1.04309082,0.017456055,0.146362305,0.139136849,0.032934496,0.07757389
1.025512695,0.015869141,0.142822266,0.1124906,0.053318876,0.071445253
1.020629883,0.021850586,0.144775391,0.099300708,0.067574619,0.059720904
1.019287109,0.030273438,0.137084961,0.069989835,0.102614435,0.034806662
1.007568359,0.056640625,0.139038086,0.058931642,0.108343378,0.025480475
1.009887695,0.048828125,0.14440918,0.027222606,0.05371857,0.012024119
1.016845703,0.030517578,0.132324219,0.010169008,0.035732352,0.007494257
1.017822266,0.02355957,0.132324219,-0.022739109,0.066508769,-0.006495023
1.008666992,0.030273438,0.126464844,-0.029533902,0.081030974,-0.015155054
1.008544922,0.033203125,0.126586914,-0.020074484,0.068374006,-0.017419985
1.001098633,0.041503906,0.127197266,0.010302239,0.024807391,-0.00836026
0.999511719,0.046142578,0.134399414,0.049738686,-0.021956775,-0.000899311
1.001342773,0.041992188,0.131835938,0.078649865,-0.032881737,-0.004896248
1.013183594,0.017333984,0.126831055,0.08557789,-0.022356469,-0.012490429
1.016235352,0.007202148,0.136108398,0.098901014,-0.015161982,-0.025147397
1.019042969,0.01171875,0.134765625,0.103697339,-0.024488168,-0.037937596
1.029663086,0.011352539,0.123657227,0.096769314,0.013615966,-0.062185682
1.030029297,0.030029297,0.119384766,0.088109283,0.036265277,-0.074576187
1.022827148,0.051513672,0.12121582,0.09636962,0.042127452,-0.088565467
1.016235352,0.066650391,0.122436523,0.109825976,0.039196365,-0.083635911
1.014404297,0.065551758,0.12878418,0.137937767,0.05158687,-0.04273392
1.026123047,0.035888672,0.12890625,0.153925516,0.024807391,-0.003297473
0.967041016,0.049316406,0.041625977,0.258645271,-0.009299807,-0.026746172
