AccelX,AccelY,AccelZ,GyroX,GyroY,GyroZ
-0.037719727,1.008422852,0.109619141,0.063581678,-0.02112408,-0.006991176
-0.037963867,1.004516602,0.127319336,0.092626089,-0.014995443,-0.010321957
-0.037597656,1.006347656,0.134765625,0.09595687,-0.024588092,-0.014318894
-0.034057617,1.002807617,0.142944336,0.077970652,-0.035379822,-0.027642018
-0.026733398,1.003173828,0.13671875,0.048260086,0.018712061,-0.04069868
-0.026733398,1.003051758,0.137084961,0.037601587,0.045624772,-0.037367899
-0.029174805,1.003540039,0.127197266,0.029474481,0.026572704,-0.009256107
-0.028564453,1.002685547,0.133911133,0.028408631,0.004056625,0.004333479
-0.024291992,0.99987793,0.1328125,0.019482138,0.018845293,0.007930723
-0.025024414,1.008422852,0.124267578,0.011621495,0.057615584,0.001668855
-0.028442383,1.009277344,0.12890625,-0.001435167,0.081597207,-0.004326551
-0.03503418,1.01953125,0.128173828,-0.001035473,0.04975494,-0.003260701
-0.037109375,1.01965332,0.121337891,0.005359626,0.024707467,-0.007257639
-0.032470703,1.01940918,0.131591797,0.005492858,0.056682965,-0.01924845
-0.036010742,1.017211914,0.135009766,-0.000502548,0.05615004,-0.022845694
-0.023681641,1.008178711,0.142822266,-0.015024753,0.03789736,-0.020713994
-0.015869141,1.005004883,0.140136719,-0.021952778,0.04975494,-0.020047838
-0.013061523,0.999023438,0.13269043,-0.027148796,0.0905237,-0.013785969
-0.020751953,0.998046875,0.131713867,-0.024217709,0.087059688,-0.007257639
-0.028564453,1.000366211,0.132446289,-0.017156453,0.05295249,0.007531029
-0.033935547,0.999023438,0.125732422,-0.015824141,0.048022934,0.006998104
-0.044921875,0.999023438,0.108886719,-0.010228429,0.06694177,0.000869467
-0.048339844,1.002685547,0.112792969,-0.002900711,0.077999963,-0.000329614
-0.048461914,1.005493164,0.119873047,0.01215442,0.07760027,0.001802086
-0.045532227,1.003540039,0.120727539,0.017217207,0.063078064,0.001269161
-0.041015625,1.005981445,0.122680664,0.015085507,0.029237329,-0.005925326
-0.034301758,1.011108398,0.124633789,0.013886426,0.024840698,-0.010854882
-0.036865234,1.006713867,0.118896484,0.011754726,0.02390808,-0.015917669
-0.028686523,1.004760742,0.114501953,0.010422413,0.020044374,-0.015784438
-0.024902344,1.005859375,0.123779297,0.00043007,0.044692153,-0.01058842
-0.021728516,1.000732422,0.118774414,-0.003433636,0.059480821,-0.003260701
-0.029052734,0.996704102,0.127075195,-0.006764417,0.051753409,0.01512521
-0.037719727,0.992431641,0.130737305,0.000563302,0.03043641,0.027116021
-0.036010742,0.999267578,0.124023438,0.016018126,0.030036717,0.012593816
-0.036499023,1.000366211,0.123657227,0.027476012,0.034966273,-0.001262233
-0.04309082,1.009399414,0.122558594,0.049059473,0.033900423,-0.02564355
-0.038696289,1.012329102,0.130737305,0.055054879,0.023508386,-0.030040181
-0.027099609,1.018920898,0.125,0.04546223,0.013516043,-0.026309706
-0.02355957,1.021728516,0.130615234,0.010289182,0.015914205,-0.024844162
-0.021850586,1.012695313,0.127075195,-0.005565335,0.042427222,-0.024044775
-0.024658203,1.009399414,0.12878418,-0.023951247,0.056816196,-0.008856413
-0.029785156,1.012207031,0.127563477,-0.016889991,0.014848355,0.01192766
-0.031738281,1.005615234,0.126708984,-0.011960435,0.011784037,0.013792897
-0.036376953,1.006225586,0.118652344,-0.003300404,0.045624772,0.000869467
-0.041870117,1.007202148,0.118041992,0.004959933,0.062545139,-0.009789032
-0.041748047,1.006835938,0.129882813,0.031872643,0.054284803,-0.016317363
-0.042236328,1.006347656,0.122314453,0.04226468,0.03469981,-0.0160509
-0.041259766,0.998168945,0.127197266,0.051590867,0.011251112,-0.017383213
-0.036499023,0.999389648,0.132202148,0.050924711,0.014715124,-0.023645081
-0.028686523,1.006835938,0.135375977,0.045328999,0.033367498,-0.035635893
-0.01184082,1.006835938,0.139648438,0.027609244,0.039762597,-0.028308175
-0.005371094,1.008789063,0.131958008,0.016950744,0.034833041,-0.017782907
-0.001708984,1.012939453,0.130126953,0.007624557,0.035365966,-0.007923795
-0.013793945,1.024536133,0.122314453,0.011621495,0.103580362,0.008996573
-0.025878906,1.027587891,0.125976563,0.020547988,0.108110224,0.009263035
-0.046508789,1.030883789,0.119140625,0.044129917,0.110508386,0.006864873
-0.05480957,1.026733398,0.125366211,0.055854267,0.107577299,0.002335011
-0.054077148,1.015258789,0.12878418,0.054388723,0.060813133,-0.024044775
-0.026489258,1.010986328,0.136474609,0.00575932,0.020444067,-0.066279078
-0.01159668,1.008056641,0.140869141,-0.03287774,0.023241923,-0.08040159
-0.001098633,1.008666992,0.140991211,-0.072580649,0.043359841,-0.082799752
-0.004516602,0.996704102,0.146850586,-0.139462732,0.064543608,-0.039499599
-0.014892578,0.99597168,0.139404297,-0.157848643,0.003124006,0.041904689
-0.031616211,1.001586914,0.145019531,-0.162378506,-0.03191581,0.074279881
-0.040893555,0.994995117,0.150878906,-0.191156454,-0.054298659,0.102658135
-0.041748047,0.995727539,0.143920898,-0.205945121,-0.050568184,0.103457522
-0.041625977,0.995239258,0.128173828,-0.195153391,-0.050301721,0.08600423
-0.044189453,1.009033203,0.107666016,-0.161579118,-0.054032196,0.068684169
-0.049316406,1.007568359,0.094848633,-0.0693831,-0.055897433,0.022452928
-0.052978516,1.021362305,0.099365234,-0.010894585,-0.064690695,0.000469773
-0.049926758,1.019287109,0.106323242,0.096623026,-0.075349195,-0.0267094
-0.03894043,1.017456055,0.116943359,0.127399443,-0.061226683,-0.036568512
-0.036010742,1.019165039,0.131713867,0.135793011,-0.012064355,-0.051756873
-0.039550781,1.012817383,0.145629883,0.122736349,-0.007268031,-0.055620579
-0.040527344,1.01550293,0.142944336,0.111811388,-0.025920404,-0.051223948
-0.047363281,1.009155273,0.154907227,0.111278463,-0.021523773,-0.042297455
-0.049072266,1.006225586,0.163818359,0.112744006,-0.014862211,-0.03536943
-0.049804688,0.990844727,0.182739258,0.08849592,-0.021790236,-0.024178006
-0.037353516,1,0.184448242,0.060250897,-0.007667724,-0.020181069
-0.033447266,1.002319336,0.185913086,0.006558708,0.029770254,-0.011920732
-0.046875,0.989379883,0.191040039,-0.005165642,0.032967804,-0.005658864
-0.046875,0.994873047,0.193603516,-0.021153391,-0.018326224,0.005399329
-0.038574219,1.002197266,0.220458984,-0.05219627,-0.057895902,0.009129804
-0.038818359,0.997192383,0.229248047,-0.166508674,-0.075482426,0.003267629
-0.014282227,1.00769043,0.225830078,-0.302804233,0.092921862,0.011394735
-0.008178711,1.030517578,0.191040039,-0.359294279,0.158871326,0.039506527
0.026000977,0.541015625,-0.147094727,1.147151358,-0.117583498,0.160480493
-0.042236328,0.935791016,0.720825195,2.284679691,-0.466382886,0.101192591
0.036132813,1.285522461,0.396484375,1.915762385,0.522992307,-0.152079997
-0.075073242,1.279907227,0.700439453,1.006992093,0.446117881,-0.200975862
-0.072753906,1.244262695,0.728271484,-0.852649563,-0.285854555,-0.147150441
-0.001464844,1.223266602,0.331420898,-1.917966563,-0.028984723,-0.043363305
0.008178711,1.194091797,0.180541992,-2.058525522,0.140352184,0.040172683
0.03125,1.112304688,-0.081542969,-1.663761356,0.064543608,0.239886313
0.054931641,1.068481445,-0.179443359,-1.247680192,0.032035185,0.314629039
0.094360352,0.976074219,-0.236694336,-0.25950408,0.241474696,0.362459054
0.087158203,0.948608398,-0.18347168,0.194947682,0.341264895,0.338743893
0.031982422,0.931518555,0.003051758,0.810476013,0.347127069,0.229627507
0.000610352,0.92980957,0.112426758,0.925854268,0.322079596,0.155151244
-0.060302734,0.950317383,0.305419922,0.812474482,0.287572705,0.001269161
-0.082641602,0.975952148,0.377929688,0.62968122,0.226019872,-0.047227011
-0.107177734,0.984863281,0.442993164,0.122603118,-0.049502334,-0.096389339
-0.081176758,0.985717773,0.412719727,-0.140928276,-0.120514585,-0.110112156
-0.005004883,0.974731445,0.297607422,-0.496255995,-0.088139394,-0.100652738
0.014404297,0.987182617,0.233520508,-0.544352472,-0.13397094,-0.073340334
0.033813477,0.998291016,0.104370117,-0.437234555,-0.239090389,-0.011121345
0.044677734,0.994628906,0.059570313,-0.332781262,-0.206182273,0.011661198
0.048217773,1.006958008,0.015625,-0.071381568,-0.115451798,0.054295195
0.052001953,1.017822266,0.062011719,0.070243241,-0.102395136,0.091333479
0.045654297,1.020263672,0.103515625,0.299267743,-0.088006162,0.178599942
0.011474609,1.026367188,0.178222656,0.352427008,-0.026053636,0.201782178
-0.02331543,1.021362305,0.202148438,0.322716441,0.095320025,0.188459054
-0.061279297,1.012084961,0.221557617,0.175895614,0.100382812,0.135832714
-0.081787109,0.988037109,0.180664063,0.039200361,0.175791694,0.073880187
-0.092041016,0.991577148,0.156494141,0.011355032,0.190180668,0.055494276
-0.106933594,0.992675781,0.12121582,0.026543394,0.161935645,0.057759207
-0.106811523,0.970581055,0.090820313,0.054521954,0.144349121,0.065220156
-0.102050781,0.959106445,0.073120117,0.098887957,0.181254175,0.074812806
-0.082397461,0.963012695,0.065551758,0.115008937,0.297565048,0.107187997
-0.077514648,0.967895508,0.069213867,0.097955339,0.293168417,0.123975133
-0.063842773,0.955444336,0.045898438,0.104750132,0.186849887,0.155550937
-0.053833008,0.949707031,0.078613281,0.123269274,0.175525231,0.165942974
-0.024658203,0.977172852,0.104492188,0.081301433,0.234813134,0.189258441
0.001342773,1.017211914,0.117553711,-0.088301936,0.229883578,0.236821994
0.01159668,1.016113281,0.150268555,-0.18862506,0.221090316,0.223765333
0.055664063,1.031860352,0.151733398,-0.383675596,0.218425691,0.173270692
0.072143555,1.037719727,0.128417969,-0.455487235,0.212563516,0.137165026
0.046630859,1.041748047,0.047119141,-0.444961967,0.133024466,0.040705608
0.004638672,1.006835938,-0.006347656,-0.366222304,0.083462444,-0.0267094
-0.012207031,1.021362305,0.213867188,-0.339176362,-0.07588212,-0.11477525
0.03918457,1.031738281,0.176513672,-0.364357066,-0.068154708,-0.099320426
0.081665039,1.039550781,0.174804688,-0.373550022,0.096119412,0.014592285
0.051147461,1.059082031,0.197143555,-0.367421385,0.105045905,0.077077737
0.036132813,1.048706055,0.127197266,-0.274958904,-0.113853023,0.235622913
0.025146484,1.067382813,0.22277832,-0.22193287,-0.299977066,0.350468242
0.009765625,1.108520508,0.252441406,-0.264167173,-0.574033728,0.585887845
0.043334961,1.149414063,0.181274414,-0.375282028,-0.617067419,0.720851091
0.029785156,1.10534668,0.141845703,-0.657066102,-0.48077186,0.959734706
0.024047852,1.041992188,0.312133789,-0.787765949,-0.385511523,1.100959821
0.0078125,1.025512695,0.34362793,-1.070749104,-0.23162944,1.350102241
0.037963867,0.988525391,0.315917969,-1.157882335,-0.168078138,1.454289071
0.064819336,0.990356445,0.284423828,-1.179066103,-0.227232809,1.746065488
0.085083008,0.870117188,0.323852539,-1.1325684,-0.317830053,1.919266101
0.104858398,0.814697266,0.340698242,-1.021586776,-0.547520711,2.329618322
0.211303711,0.828857422,0.319091797,-1.026649563,-0.730180742,2.584489685
0.291870117,0.887084961,0.333496094,-1.1304367,-1.087240467,3.082641294
0.363647461,0.794189453,0.323242188,-1.15841526,-1.132539089,3.294345735
0.379272461,0.796264648,0.337158203,-1.122309594,-0.718856087,3.673921539
0.402099609,0.634765625,0.216552734,-1.054761355,-0.410026071,3.799691831
0.407226563,0.643920898,0.198486328,-0.856779732,-0.351137863,4.00899811
0.598022461,0.681762695,0.440307617,-0.832131952,-0.653039854,4.261471311
0.743408203,0.687255859,0.403442383,-0.752726133,-0.781874464,4.365658141
0.731445313,0.716064453,0.329467773,-0.701831799,-0.827039854,4.365658141
0.717407227,0.720214844,0.298828125,-0.560473453,-0.703401263,4.365658141
0.906738281,0.657104492,0.279785156,-0.542886929,-0.551784111,4.365658141
0.989257813,0.580322266,0.239990234,-0.653868552,-0.171408919,4.365658141
0.989624023,0.385131836,0.395874023,-0.712889992,0.009785568,4.365658141
0.910766602,0.268066406,0.458984375,-0.606171768,0.185117881,4.119047114
0.905517578,0.158691406,0.471435547,-0.504649563,0.126496135,3.930391678
0.948242188,0.080200195,0.455932617,-0.237254463,-0.149292533,3.622893974
0.961669922,0.029907227,0.409912109,-0.131335627,-0.244153176,3.462217098
1.005371094,0.109008789,0.441894531,-0.085237617,-0.394038322,3.19175768
1.061157227,0.123413086,0.426391602,-0.130269777,-0.366459455,3.09409918
0.995483398,0.010742188,0.350585938,-0.190357066,-0.036578904,2.984183407
0.986206055,-0.106445313,0.514038086,-0.175301936,0.038563516,2.948477434
1.029296875,-0.172241211,0.521362305,-0.077243743,-0.314232809,2.953673453
0.990112305,-0.248168945,0.420532227,-0.012893054,-0.614536025,3.051198721
0.933227539,-0.198608398,0.523803711,0.057719504,-0.81584843,3.113950635
0.855712891,-0.298828125,0.315673828,0.282880301,-1.351304786,3.099961355
0.95324707,-0.379638672,0.177490234,0.325381066,-1.322526838,3.066520314
0.935302734,-0.407592773,0.428100586,0.353759321,-0.887926531,3.101293667
0.834594727,-0.419921875,0.36706543,0.39452808,-1.164381355,3.113151248
0.970214844,-0.497070313,0.173461914,0.35802272,-1.409926532,3.028282947
0.9765625,-0.489746094,0.175170898,0.442757789,-1.265237404,2.913837312
0.943847656,-0.507568359,0.233520508,0.431699596,-1.076049043,2.909040987
0.919921875,-0.584960938,0.304077148,0.309926242,-0.992113361,2.878664264
0.811401367,-0.55847168,0.318359375,0.25916514,-1.146928063,2.858146653
0.711791992,-0.504516602,0.361572266,0.213866518,-1.578197589,2.666160435
0.830322266,-0.670288086,0.083862305,0.272621495,-1.659468645,2.576629042
0.857421875,-0.685058594,0.113891602,0.388665906,-1.180635567,2.535993513
0.67956543,-0.757080078,0.264160156,0.367215676,-0.757759609,2.485765336
0.578125,-0.819946289,0.221069336,0.380005875,-0.753362978,2.433805152
0.535644531,-0.741699219,0.182128906,0.485525018,-1.030483959,2.294312043
0.563354492,-0.736694336,0.244506836,0.505776166,-1.182634035,2.219835779
0.598266602,-0.827758789,0.193481445,0.451018126,-1.178237404,2.170273758
0.604614258,-0.932495117,0.053466797,0.389065599,-1.007967879,2.187327357
0.571899414,-0.917358398,0.126098633,0.305263149,-0.574566653,2.205713268
0.458129883,-0.829711914,0.228149414,0.337505109,-0.452660068,2.157883253
0.391845703,-0.750732422,0.160644531,0.346964527,-0.466249655,1.948976667
0.380737305,-0.772460938,0.132202148,0.312457636,-0.562042917,1.853849561
0.385131836,-0.846191406,0.119140625,0.234783823,-0.671692228,1.761120618
0.376464844,-0.962890625,0.061645508,0.300733287,-0.301042916,1.778573911
0.267333984,-0.93347168,0.211914063,0.433298371,-0.018059761,1.782037923
0.194213867,-0.915649414,0.228637695,0.490188111,-0.048702946,1.789765335
0.221557617,-0.922607422,0.270385742,0.596773103,-0.253346132,1.821341139
0.249389648,-0.930297852,0.280517578,0.619022721,-0.269067418,1.801223221
0.30065918,-0.948486328,0.119384766,0.619289183,0.037764129,1.768315105
0.265869141,-0.975097656,0.065063477,0.62115442,0.205369029,1.785635166
0.123291016,-1.024414063,0.115722656,0.656061005,0.33327102,1.80748509
0.076538086,-1.000366211,0.163208008,0.703891021,0.342064282,1.765916943
0.020507813,-0.944580078,0.354980469,0.791956871,0.014182199,1.521704079
0.056030273,-0.919433594,0.346435547,0.790224865,-0.19086068,1.365557065
0.140136719,-0.982543945,0.220947266,0.688702659,-0.094268031,1.100293665
0.148925781,-1.022583008,0.169067383,0.626616901,0.133957084,0.978253848
0.092407227,-1.08190918,0.157958984,0.592642935,0.341264895,0.855014951
0.051513672,-1.107543945,0.258178711,0.565996687,0.409612521,0.553912347
0.043823242,-1.087890625,0.406860352,0.5609339,0.239875921,0.394701014
0.071044922,-1.064575195,0.430786133,0.474866518,-0.300909685,0.129970539
0.115478516,-1.081787109,0.282348633,0.217996686,-0.33475042,-0.107447532
0.078491211,-1.079467773,0.19921875,0.0282754,0.374705936,-0.460110625
0.016601563,-1.094848633,0.244873047,0.009623026,0.489151572,-0.857006491
0.024902344,-1.102172852,0.353759766,-0.009695504,0.293568111,-1.029674179
0.083618164,-1.06628418,0.404541016,-0.164643437,-0.09306895,-1.314922265
0.116210938,-1.027954102,0.327636719,-0.283219241,-0.13503679,-1.45614738
0.120727539,-1.05480957,0.305053711,-0.471208521,0.194310836,-1.732868667
0.057373047,-1.046630859,0.253662109,-0.464813422,0.311554328,-1.892213231
0.05859375,-1.068847656,0.301513672,-0.315194739,-0.088006162,-2.236749219
0.111083984,-0.930541992,0.306640625,-0.27349336,-0.462918874,-2.431533293
0.242675781,-0.893432617,0.243164063,-0.550614341,-0.616001569,-2.741295927
0.386962891,-0.982299805,0.42578125,-0.719951248,-0.321960221,-2.82110144
0.378295898,-0.927856445,0.461669922,-0.863174831,0.121166885,-2.875726249
0.449707031,-0.973266602,0.344360352,-0.873966562,-0.003670787,-2.925421502
0.445556641,-0.947387695,0.079467773,-0.963364724,-0.015661599,-2.924622114
0.41796875,-0.950317383,0.250854492,-1.025450482,0.114238861,-3.053190261
0.428588867,-0.819946289,0.276367188,-0.908206991,-0.050967878,-3.299801288
0.497558594,-0.777832031,0.116333008,-0.865972687,-0.23482699,-3.355625178
0.495361328,-0.648925781,0.169799805,-0.807484173,-0.607874463,-3.393596081
0.562744141,-0.691040039,0.142822266,-0.862775137,-0.596949502,-3.393196387
0.735473633,-0.767456055,0.101196289,-0.939916026,-0.211378291,-3.366017214
0.71105957,-0.710571289,0.16796875,-0.97362353,-0.104127143,-3.418510323
0.805541992,-0.595581055,0.083129883,-1.025317251,-0.236026071,-3.522164228
0.77722168,-0.535644531,0.0703125,-1.009995658,-0.345941844,-3.494318899
0.858276367,-0.459106445,0.104492188,-0.969626592,-0.322226683,-3.368148914
0.961425781,-0.492797852,0.072387695,-0.943779732,-0.237091921,-3.260231609
0.971191406,-0.491821289,0.063598633,-0.879295811,-0.213643222,-3.073174948
0.963989258,-0.385498047,0.054321289,-0.855713882,-0.393372166,-3.123802819
0.949829102,-0.391113281,-0.061523438,-0.862108981,-0.323692227,-3.161374029
0.884277344,-0.199462891,-0.107421875,-0.801621998,0.138353715,-3.278351058
0.969482422,-0.188476563,-0.045166016,-0.631752166,0.353522169,-3.458479695
1.006591797,-0.150024414,-0.012695313,-0.551413728,0.223888172,-3.512571579
1.017333984,-0.131103516,0.039306641,-0.528764417,-0.244686101,-3.627150446
1.05847168,-0.124633789,-0.067993164,-0.572197802,-0.276528368,-3.713883984
1.091308594,0.015380859,-0.188720703,-0.574729195,0.241208233,-3.984743096
1.077880859,0.132202148,-0.08605957,-0.60310745,0.500609459,-4.126101442
1.111816406,0.216430664,0.08972168,-0.660929808,0.574552797,-4.295838043
1.108520508,0.208007813,0.129760742,-0.701432105,0.411344527,-4.365651213
1.01574707,0.231567383,0.002563477,-0.757389226,0.200306242,-4.365651213
0.987792969,0.337524414,-0.036987305,-0.691040068,0.195643149,-4.365651213
0.84765625,0.373291016,0.037719727,-0.567934402,0.075068876,-4.365651213
0.766357422,0.455932617,0.169799805,-0.55914114,-0.124111829,-4.365651213
0.707519531,0.486450195,0.18359375,-0.569266714,-0.814649349,-4.365651213
0.849243164,0.624511719,0.006591797,-0.559540834,-1.012897435,-4.365651213
0.865234375,0.752441406,0.042724609,-0.536092135,-0.89965088,-4.365651213
0.744018555,0.750732422,-0.018310547,-0.522369318,-0.716058231,-4.29450573
0.627319336,0.739624023,-0.041259766,-0.403260589,-0.403764203,-4.069744627
0.595092773,0.82800293,-0.09375,-0.296275902,-0.441868338,-3.962360247
0.593994141,0.904052734,-0.127441406,-0.05113042,-0.459854555,-3.554006495
0.534912109,1.009155273,0.05480957,0.026676625,-0.357932656,-3.299268363
0.418334961,1.009887695,0.104980469,-0.0693831,-0.263338475,-2.951135131
0.267333984,0.928955078,0.009277344,-0.161445887,-0.278393605,-2.864534825
0.271728516,0.891113281,-0.116943359,-0.155184019,-0.244819333,-2.79312288
0.328979492,1.000488281,-0.072021484,-0.082572992,-0.024188398,-2.610995774
0.342895508,1.04296875,-0.018310547,-0.105355535,0.16460027,-2.449253048
0.26940918,1.035888672,0.028686523,-0.232191676,0.516197514,-2.126566983
0.202758789,1.011230469,0.044921875,-0.310131951,0.663817728,-2.001063154
0.080200195,0.963134766,-0.031494141,-0.36155921,0.966519107,-1.893545543
0.03137207,0.973999023,-0.055541992,-0.340775137,1.074702874,-1.897808943
0.047119141,1.007080078,-0.024047852,-0.294677128,1.171295524,-1.857173414
0.069946289,1.054321289,-0.012817383,-0.293211584,1.129327683,-1.726473567
0.041137695,1.014160156,0.08996582,-0.371018628,0.969316963,-1.429900826
-0.010742188,1.004394531,0.081176758,-0.426709287,1.071505325,-1.300799754
-0.066650391,0.996948242,0.069213867,-0.525966561,1.411244988,-1.06418107
-0.115844727,0.971923828,0.088378906,-0.527831799,1.401652339,-0.957596078
-0.207519531,0.903564453,0.086914063,-0.404726132,0.94000609,-0.712050901
-0.230834961,0.909301758,0.110717773,-0.359027817,0.67154514,-0.556703275
-0.227416992,0.920654297,0.168701172,-0.345038536,0.344329213,-0.090926858
-0.228759766,0.909057617,0.131713867,-0.367288154,0.298231204,0.200316634
-0.245117188,0.918457031,0.080200195,-0.391802702,0.334470102,0.912704078
-0.231079102,0.917724609,0.075927734,-0.365422916,0.310355247,1.348237003
-0.221557617,0.912475586,0.173828125,-0.275225366,0.018712061,2.282188
-0.22277832,0.909423828,0.239013672,-0.25843823,-0.221237403,2.67841771
-0.163696289,0.875244141,0.212646484,-0.290946653,-0.603744295,3.197086929
-0.087646484,0.878662109,0.165039063,-0.347836393,-0.559511523,3.351102243
0.089477539,0.923339844,0.112304688,-0.465479578,-0.047370634,3.644210973
0.293823242,0.969482422,0.241699219,-0.493324907,0.111441005,3.865907757
0.341796875,0.944702148,0.332397461,-0.467744509,-0.192725918,4.365658141
0.416259766,0.770141602,0.157714844,-0.401128889,-0.463451798,4.365658141
0.491088867,0.73449707,0.071044922,-0.276024754,-0.369257311,4.365658141
0.541625977,0.777709961,0.056152344,-0.2412514,0.081197513,4.365658141
0.647460938,0.721923828,0.197509766,-0.156516331,0.575218953,4.306636701
0.57019043,0.699462891,0.314331055,-0.141194738,0.25053442,4.239488156
0.770019531,0.598876953,0.263793945,-0.074579118,-0.319295596,4.162746961
0.928344727,0.603149414,0.111938477,-0.074978812,-0.374053636,4.124509595
0.962646484,0.5625,0.091186523,-0.133467326,0.189248049,4.094399335
0.915283203,0.455322266,0.177001953,-0.171571461,0.619451725,4.071883255
0.84765625,0.401855469,0.229736328,-0.157981875,0.792252644,3.992743898
0.836425781,0.390136719,0.250732422,-0.084837924,0.474229673,3.948644358
0.862548828,0.401367188,0.233032227,0.133128386,-0.308237403,3.835131341
1.061645508,0.227050781,0.1484375,0.21306713,-0.418019945,3.779040988
1.16015625,0.161865234,0.162841797,0.174962996,-0.151690695,3.806753086
1.104614258,0.040283203,0.186889648,0.154178922,0.398287866,3.907209442
1.0390625,0.012329102,0.20300293,0.197479075,0.318882046,3.921864878
1.018920898,0.102294922,0.252441406,0.356557177,-0.345808613,3.898549411
1.068481445,0.01159668,0.171630859,0.44928612,-0.532865275,3.858180345
1.158569336,-0.051635742,0.156982422,0.467405569,-0.293581967,3.835131341
1.133300781,-0.065917969,0.156860352,0.404120729,0.013516043,3.841659671
1.028686523,-0.094970703,0.131835938,0.304996686,0.351257238,3.804621386
0.990478516,-0.10534668,0.250610352,0.321250898,0.211231204,3.808884786
0.916503906,-0.322265625,0.201049805,0.449152889,-0.348872932,3.75452644
1.016113281,-0.375854492,0.194824219,0.4654071,-0.266935719,3.803289074
1.064697266,-0.463012695,0.184936523,0.379606181,0.033900423,3.831001172
0.967529297,-0.422729492,0.231445313,0.198278463,0.490617116,3.847788308
0.889892578,-0.389038086,0.262573242,0.132062536,0.403883578,3.834731647
0.746826172,-0.376342773,0.352783203,0.107414757,-0.038044447,3.764652014
0.811035156,-0.6953125,0.119262695,0.148316748,-0.090004631,3.724949105
0.835327148,-0.764892578,0.109741211,0.145518891,0.147013746,3.745599947
0.67565918,-0.833007813,0.159545898,0.111278463,0.34392952,3.72441618
0.623657227,-0.78503418,0.201904297,0.053989029,0.483689091,3.588920008
0.506347656,-0.679443359,0.380493164,0.055987498,0.358718187,3.533629043
0.4609375,-0.763916016,0.420654297,0.151647529,-0.042174616,3.332316639
0.573120117,-0.918579102,0.202514648,0.25490174,-0.161150114,3.265834249
0.501953125,-0.938842773,0.170043945,0.332842016,-0.240689164,3.179766868
0.370361328,-0.908813477,0.127563477,0.32151736,-0.117983192,3.117414647
0.319580078,-0.860839844,0.120361328,0.229188111,0.236411908,2.983517251
0.236206055,-0.880737305,0.33605957,0.138990561,0.353522169,2.932356454
0.239990234,-0.925048828,0.427612305,0.059851204,0.300096441,2.801390145
0.240600586,-0.900024414,0.231567383,0.065713378,-0.039509991,2.746765336
0.106079102,-0.954101563,0.070556641,0.030806793,-0.060294064,2.725048644
-0.033325195,-1.012329102,0.126220703,0.056653654,0.099716656,2.56250653
-0.03503418,-1.040649414,0.188110352,0.08849592,0.05401834,2.419282947
-0.045898438,-1.012207031,0.313964844,0.124868049,-0.285454861,2.110452931
-0.012451172,-0.951660156,0.309204102,0.114875706,-0.431875994,1.958302854
-0.026123047,-0.997192383,0.288452148,0.0304071,-0.414289471,1.664261506
-0.044677734,-1.086791992,0.258300781,-0.005165642,-0.301176147,1.495723987
-0.071044922,-1.144287109,0.24621582,-0.040871614,-0.170875994,1.095097646
-0.049438477,-1.137573242,0.295288086,-0.056326438,-0.229364509,0.827702546
-0.023071289,-1.085571289,0.327758789,-0.14892215,-0.318895902,0.254808212
0.014160156,-1.150024414,0.353881836,-0.211540833,-0.28638748,-0.021913075
0.011962891,-1.247802734,0.321289063,-0.308799639,-0.190727449,-0.58414891
0.015380859,-1.205688477,0.217407227,-0.333314187,-0.124511522,-0.891113689
0.029907227,-1.159057617,0.065185547,-0.376347878,0.185917268,-1.495317365
-0.037231445,-1.220336914,0.181884766,-0.37874604,0.345261832,-1.77510297
-0.034423828,-1.210449219,0.277587891,-0.296808827,0.338999964,-2.293905421
-0.053222656,-1.122314453,0.260864258,-0.248579118,0.16353442,-2.551441409
-0.021118164,-0.993164063,0.181396484,-0.38300944,-0.048702946,-3.014819664
0.166137695,-1.041992188,0.120605469,-0.675718476,0.490750347,-3.318053968
0.171875,-1.123901367,0.333618164,-0.673320313,0.83049001,-3.442491946
0.181274414,-1.038208008,0.285888672,-0.535692442,0.876454788,-3.643138195
0.224487305,-0.922973633,0.315307617,-0.446827204,0.572154635,-3.684972804
0.287719727,-0.889038086,0.171020508,-0.538090604,-0.032182273,-3.758249987
0.422241211,-0.978271484,0.020629883,-0.692372381,0.287572705,-3.854709405
0.446166992,-0.994873047,0.242553711,-0.63108601,0.554834573,-3.977548609
0.517700195,-0.824707031,0.251464844,-0.555144203,0.710315431,-4.179393938
0.559692383,-0.743408203,0.330688477,-0.527032411,0.52658955,-4.166603739
0.697143555,-0.759033203,0.140869141,-0.573796577,0.030569642,-3.92612135
0.796508789,-0.859619141,0.010498047,-0.550747572,-0.041641691,-3.824599145
0.727539063,-0.856201172,0.0859375,-0.39806457,0.115437942,-3.922390875
0.584594727,-0.549926758,0.154663086,-0.320390757,0.167664588,-4.221628242
0.672851563,-0.464233398,0.172119141,-0.289081415,0.04109491,-4.280249987
0.899658203,-0.491699219,0.077148438,-0.316127357,-0.061759608,-4.318354122
0.982421875,-0.515991211,0.045776367,-0.343706224,0.221356778,-4.32128521
0.993652344,-0.443725586,0.063110352,-0.31213042,0.467568111,-4.299968211
0.920043945,-0.341918945,0.122192383,-0.245115106,0.577350653,-4.094125944
0.803955078,-0.196655273,0.30859375,-0.199816484,0.403750347,-4.003129007
0.794311523,-0.156616211,0.179199219,-0.13280117,-0.058029133,-4.181658869
0.992919922,-0.099243164,0.095581055,-0.096029348,-0.143696821,-4.240547078
0.993286133,-0.019897461,0.130004883,-0.083105917,-0.024454861,-4.285179543
0.898681641,0.060668945,0.07800293,-0.086836392,0.035365966,-4.272522575
0.872924805,0.116210938,0.074707031,0.004560239,-0.009266499,-4.232020278
0.969116211,0.138671875,0.181396484,0.061849672,-0.196989317,-4.289043249
1.067382813,0.242431641,0.220825195,-0.087769011,-0.471312442,-4.365651213
0.965332031,0.258911133,0.14050293,-0.209409134,-0.401898965,-4.365651213
0.898681641,0.340454102,0.077758789,-0.334113575,0.07227102,-4.365651213
0.835449219,0.371948242,0.1171875,-0.280421385,0.326875921,-4.355925332
0.740966797,0.434448242,0.169067383,-0.025949715,0.304626304,-4.365651213
0.708496094,0.444702148,0.192016602,0.095557176,0.032301648,-4.365651213
0.734619141,0.500366211,0.097900391,0.270623026,-0.443600344,-4.365651213
0.805786133,0.6640625,0.072021484,0.310192705,-0.45825578,-4.253070814
0.819458008,0.67565918,0.170532227,0.373877238,-0.257875994,-3.953300523
0.689819336,0.711914063,0.097045898,0.40958321,-0.184865274,-3.843118287
0.633056641,0.745605469,0.088745117,0.483926243,-0.237891308,-3.766910017
0.656860352,0.823242188,0.029541016,0.488322874,-0.344076607,-3.751321962
0.659179688,0.876953125,-0.016967773,0.380805262,-0.092402793,-3.632213233
0.47253418,0.915893555,0.008178711,0.312324405,0.21189736,-3.591444473
0.395385742,0.928588867,0.01940918,0.191616901,0.721240393,-3.630614458
0.349853516,1.002197266,0.053344727,0.188552582,0.733630898,-3.603568516
0.376831055,0.998413086,0.069824219,0.208404037,0.278246518,-3.362952896
0.343261719,1.064941406,0.054321289,0.077171265,0.182986181,-3.026011088
0.2734375,1.054443359,0.021606445,-0.033410665,0.4491822,-2.890115223
0.188842773,0.9921875,-0.006469727,-0.195819547,1.053652338,-2.688669587
0.131225586,0.958007813,0.002807617,-0.217536239,1.182886642,-2.602602206
0.001708984,0.983764648,0.075073242,-0.260969624,0.897105631,-2.48922242
-0.07421875,1.02722168,0.108032227,-0.28202016,0.554035186,-2.44738781
-0.046264648,0.986938477,0.048706055,-0.322255994,0.204436411,-2.401689495
-0.052246094,0.991088867,0.029296875,-0.427775137,0.132091847,-2.184522573
-0.045043945,1.017578125,0.138793945,-0.489994126,0.364047437,-1.974017212
-0.078613281,1.003295898,0.118896484,-0.547683253,0.604130133,-1.468537886
-0.20703125,0.981323242,0.0234375,-0.49465722,0.540712062,-1.258032525
-0.252929688,0.977172852,0.040893555,-0.344105918,0.261859075,-0.982110626
-0.263793945,0.947753906,0.093994141,-0.309865489,0.002591081,-0.74948888
-0.186523438,0.976806641,0.075683594,-0.331182487,0.028304711,-0.608530227
-0.188110352,0.996948242,0.135253906,-0.397131952,0.281577299,-0.225357179
-0.28112793,1.010131836,0.166381836,-0.419648031,0.275182199,0.034310508
-0.316894531,0.984741211,0.151489258,-0.366355535,-0.068687633,0.606938381
-0.283935547,0.947143555,0.197998047,-0.305202396,-0.312900497,0.896449866
-0.241333008,0.921386719,0.219482422,-0.229660282,-0.714192993,1.471609132
-0.120117188,0.8984375,0.167602539,-0.203280496,-0.857683039,2.041972073
-0.088867188,0.904296875,0.109008789,-0.187425979,-0.891790237,2.609936852
-0.057861328,0.90234375,0.216674805,-0.193288153,-0.802392075,2.864808215
-0.063598633,0.916137695,0.258544922,-0.195686316,-0.696473238,3.288350329
0.00402832,0.92578125,0.28125,-0.162911431,-0.792133269,3.46887866
0.094970703,0.917724609,0.263061523,-0.056726132,-1.168777986,3.88336105
0.26171875,0.842285156,0.193237305,0.009489795,-1.290684571,4.104125215
0.326538086,0.816650391,0.128295898,0.134061005,-1.222070483,4.365658141
0.428955078,0.764892578,0.133666992,0.180691939,-1.005702948,4.365658141
0.416015625,0.810058594,0.215576172,0.237315216,-0.559644754,4.365658141
0.476928711,0.754882813,0.202758789,0.364817514,-0.697805551,4.365658141
0.600952148,0.697998047,0.07824707,0.457946151,-0.863811677,4.365658141
0.692749023,0.64074707,0.059448242,0.60396759,-0.905513055,4.365658141
0.776245117,0.618164063,0.032104492,0.651797606,-0.668494678,4.365658141
0.767089844,0.560058594,0.02722168,0.707488264,-0.048303253,4.365658141
0.88671875,0.482910156,0.208374023,0.725208019,0.075868264,4.365658141
1.034179688,0.460449219,0.027587891,0.670849673,0.069206701,4.365658141
1.044921875,0.416870117,0.12902832,0.634477545,-0.054964815,4.365658141
1.020385742,0.424194336,0.127319336,0.654728693,-0.131306316,4.365658141
1.002441406,0.358886719,0.07043457,0.695897146,-0.229098046,4.365658141
1.0234375,0.229370117,0.008789063,0.688036503,-0.240822395,4.365658141
1.108398438,0.099365234,-0.030517578,0.646601587,-0.196989317,4.365658141
1.107543945,0.028686523,0.068969727,0.641272338,-0.106258842,4.358863347
1.058837891,-0.097167969,0.043212891,0.678843548,0.017646211,4.216172689
1.049316406,-0.119873047,-0.029418945,0.720411695,0.018312368,4.128506532
1.024536133,-0.219360352,0.008789063,0.783962996,-0.056297127,3.941050177
1.026489258,-0.321166992,-0.028198242,0.808477545,-0.037378291,3.93385569
1.012207031,-0.315429688,-0.009155273,0.774503578,0.010584956,3.959702551
1.010742188,-0.249633789,0.12890625,0.703224865,0.010851418,3.985282949
0.942993164,-0.409179688,-0.012939453,0.667518892,-0.10172898,3.894685705
0.916992188,-0.526123047,-0.087524414,0.644869581,-0.048569715,3.837396272
0.873291016,-0.665771484,0.074584961,0.62541782,0.153675308,3.769981264
0.839599609,-0.654785156,0.127197266,0.600370347,0.093188325,3.754126746
0.818115234,-0.612060547,0.12902832,0.544679688,-0.205116423,3.630221693
0.811279297,-0.569702148,0.096069336,0.487523486,-0.209912748,3.525235475
0.776611328,-0.761474609,-0.066772461,0.460477544,0.291436411,3.349503469
0.766601563,-0.793823242,-0.056640625,0.434364221,0.560297054,3.335913882
0.568969727,-0.906738281,0.261352539,0.360953808,0.464503792,3.304338078
0.524291992,-0.935180664,0.260986328,0.417577085,0.123964741,3.25943915
0.460205078,-0.90222168,0.035644531,0.550541863,-0.516877526,3.068119088
0.430786133,-0.917602539,0.034790039,0.61249439,-0.524471707,2.95767039
0.505004883,-0.997070313,0.082763672,0.668717973,-0.354868337,2.848953698
0.497436523,-0.990966797,0.040527344,0.647267744,-0.010998505,2.647508062
0.40612793,-0.942260742,0.124267578,0.594641404,0.046290928,2.552647418
0.349853516,-0.926635742,0.134521484,0.554672031,0.01538128,2.342541752
0.273803711,-0.898071289,0.14074707,0.555737881,0.006055093,2.266599945
0.245117188,-0.927124023,0.179931641,0.524695002,0.032701342,2.145226285
0.198974609,-0.951416016,0.191650391,0.477397912,0.02390808,2.09100117
0.165039063,-0.943969727,0.194824219,0.425437728,-0.091070481,1.995607601
0.160522461,-0.901977539,0.205810547,0.446355033,-0.161016882,1.970293666
0.111816406,-0.861450195,0.243164063,0.452616901,-0.297445673,1.953506529
0.028564453,-0.919189453,0.294311523,0.354159014,-0.396436484,1.957503467
-0.069458008,-1.002563477,0.162597656,0.308327467,-0.280125611,1.952307448
-0.025756836,-0.997680664,0.242675781,0.323915523,-0.347807082,1.92246365
0.002685547,-0.979125977,0.259887695,0.412381066,-0.708597281,1.758189531
0.013916016,-0.897705078,0.245849609,0.421973716,-0.784805551,1.656001169
-0.006958008,-0.943847656,0.289794922,0.27315442,-0.551917342,1.422446804
-0.081298828,-1.044677734,0.221923828,0.216930836,-0.384445673,1.282953695
-0.090454102,-1.083862305,0.196655273,0.215998218,-0.270399731,0.945612194
-0.060180664,-1.108764648,0.265258789,0.209336656,-0.304906622,0.766016482
-0.044921875,-1.125366211,0.277099609,0.172698065,-0.348872932,0.338877125
0.014526367,-1.11706543,0.240844727,0.060650591,-0.266269562,-0.241877853
0.093261719,-1.106445313,0.170410156,-0.055393819,-0.067088858,-0.561899293
0.067871094,-1.110473633,0.15234375,-0.322655688,0.533650806,-1.223792097
0.011474609,-1.150756836,0.17956543,-0.456686316,0.768803946,-1.515568514
-0.045288086,-1.190063477,0.223632813,-0.647473453,0.856470102,-2.011588422
-0.068115234,-1.244506836,0.227661133,-0.661329502,0.797981588,-2.225957488
-0.065551758,-1.202758789,0.244018555,-0.557542365,0.49754514,-2.669484288
-0.064086914,-1.148071289,0.209838867,-0.572597495,0.278646212,-2.909700215
0.022827148,-1.025878906,0.107666016,-0.731409134,0.270119412,-3.30219945
0.161865234,-1.091430664,0.125244141,-0.924327971,0.700323088,-3.542015683
0.20324707,-1.108764648,0.172607422,-0.951240681,0.900969337,-3.663389343
0.26953125,-1.00012207,0.248291016,-0.966961968,1.056716657,-3.966490416
0.240966797,-0.842041016,0.28125,-1.008663346,0.80464315,-4.075340339
0.391601563,-0.856567383,0.190307617,-1.105389227,0.649295523,-4.082534826
0.541015625,-0.96105957,0.154418945,-1.158548492,0.635572705,-4.08826377
0.540771484,-0.922851563,0.239379883,-1.142161049,0.803177606,-4.328612928
0.511474609,-0.667602539,0.221435547,-1.066752167,0.854604865,-4.365651213
0.656616211,-0.605224609,0.266479492,-0.971225367,0.679272552,-4.365651213
0.798950195,-0.680297852,0.040039063,-1.085671003,0.542310837,-4.365651213
0.936767578,-0.695678711,-0.069824219,-1.044369318,0.853272552,-4.365651213
0.842285156,-0.604492188,0.039794922,-0.963231493,0.978110225,-4.365651213
0.647460938,-0.409179688,0.208374023,-0.775375444,0.9711822,-4.365651213
0.691894531,-0.384033203,0.228759766,-0.625223835,0.841947897,-4.365651213
0.95300293,-0.282226563,-0.131103516,-0.531562273,0.673143915,-4.365651213
0.898925781,-0.252929688,0.052612305,-0.494523988,0.671944834,-4.365651213
0.873901367,-0.192504883,0.106445313,-0.333180956,0.763474696,-4.365651213
0.964477539,-0.203613281,0.185302734,-0.117079884,0.812503793,-4.365651213
0.99609375,-0.12902832,0.046875,0.00043007,0.702321557,-4.365651213
0.963134766,-0.065307617,0.061889648,0.072508172,0.620917269,-4.365651213
0.917114258,0.078491211,0.168334961,0.235849673,0.52219292,-4.365651213
0.862915039,0.215209961,0.133300781,0.352427008,0.682070408,-4.365651213
0.89074707,0.202880859,0.176879883,0.459678157,0.737361373,-4.365651213
0.900512695,0.347290039,0.264282227,0.654995156,0.512333808,-4.365651213
0.899780273,0.422607422,0.33190918,0.659125324,0.323411909,-4.365651213
0.906494141,0.421508789,0.347412109,0.53522027,0.215361372,-4.365651213
0.871948242,0.601806641,0.173583984,0.462342782,0.392159229,-4.254003433
0.822998047,0.595092773,0.090942383,0.617423946,0.761609459,-4.054423035
0.640991211,0.673461914,0.093383789,0.81873635,0.726569643,-4.028842636
0.599609375,0.758666992,0.178222656,1.060950746,0.170595676,-4.012988119
0.685302734,0.838867188,0.195678711,1.066279995,-0.095733574,-3.952900829
0.752563477,0.849487305,0.224975586,0.886950745,-0.104793299,-3.67164968
0.642578125,0.863647461,0.125732422,0.772771572,0.109042842,-3.585182605
0.530029297,0.870361328,0.072509766,0.688969122,0.449848356,-3.570926862
0.44128418,0.899780273,0.055297852,0.70056024,0.404416503,-3.582651212
0.442871094,0.997192383,0.163208008,0.56959393,0.228151572,-3.447821196
0.409790039,1.086425781,0.213867188,0.420641403,0.168463976,-3.307129006
0.402832031,1.067749023,0.145141602,0.114609244,0.228151572,-3.014553202
0.312744141,1.051025391,0.055908203,-0.02648264,0.59960027,-2.734900828
0.250732422,1.016845703,-0.000854492,-0.053661813,0.839150041,-2.612461317
0.191894531,0.991455078,0.149780273,-0.122542365,0.9733139,-2.329478162
0.133056641,0.978149414,0.169921875,-0.164909899,0.837817729,-2.200910015
0.000244141,0.98828125,0.126953125,-0.198084478,0.382033654,-2.069011087
-0.047485352,1.001220703,0.077392578,-0.198883866,0.260260301,-2.056087657
-0.01184082,1.041503906,0.128173828,-0.232324907,0.369909612,-1.866233139
0.032348633,1.056762695,0.125366211,-0.266032411,0.402684497,-1.661456722
-0.037475586,1.029174805,0.072998047,-0.248579118,0.33646857,-1.229654271
-0.182128906,1.004516602,0.121826172,-0.178632717,0.07653442,-0.967854883
-0.14831543,0.996826172,0.116333008,-0.173969624,-0.094534493,-0.830626706
-0.099609375,0.976928711,0.110961914,-0.217003314,0.046024466,-0.735099906
-0.095581055,0.980957031,0.182739258,-0.321056913,0.351257238,-0.498880916
-0.184326172,0.942016602,0.147216797,-0.283352472,0.193911143,-0.23934646
-0.194458008,0.923828125,0.189819336,-0.215404539,-0.048569715,-0.053488879
-0.185424805,0.929077148,0.196655273,-0.11774604,-0.457989318,0.40282812
-0.188232422,0.928344727,0.166381836,-0.098161048,-0.540192993,0.646508059
-0.179199219,0.921508789,0.181762695,-0.074312656,-0.647044448,1.163578504
-0.154418945,0.870605469,0.182861328,-0.039539302,-0.770016883,1.475472838
-0.147460938,0.877807617,0.193603516,0.049992092,-1.094568185,2.158949102
-0.107299805,0.926025391,0.246459961,0.03147295,-1.100830054,2.464048643
-0.054077148,0.932861328,0.219848633,-0.056459669,-0.993978599,3.013361049
0.020141602,0.940917969,0.243896484,-0.073513268,-1.068987787,3.296477435
0.025634766,0.959228516,0.250366211,-0.077243743,-1.290151646,3.845123684
0.172363281,0.858398438,0.234008789,-0.08443823,-1.343310911,4.084140529
0.246826172,0.834350586,0.236450195,-0.102424447,-1.210479365,4.365658141
0.452270508,0.727661133,0.120483398,-0.072580649,-1.125877527,4.365658141
0.505615234,0.701782227,0.095214844,0.051057942,-0.897385949,4.365658141
0.611816406,0.67565918,0.090576172,0.109279994,-0.807055168,4.365658141
0.660644531,0.682983398,0.083129883,0.11207785,-0.592153177,4.365658141
0.745849609,0.658325195,0.138916016,0.122869581,-0.494228215,4.365658141
0.752563477,0.641601563,0.174804688,0.274886426,-0.49156359,4.365658141
0.807006836,0.560546875,0.132202148,0.377740944,-0.629857618,4.365658141
0.909301758,0.467407227,0.094604492,0.550008938,-0.884462519,4.365658141
1.057250977,0.439086914,0.00012207,0.585315217,-0.581361446,4.365658141
1.078857422,0.423583984,0.000610352,0.564131449,-0.291183804,4.365658141
1.046264648,0.391357422,0.095703125,0.497116135,0.216560454,4.365658141
1.04699707,0.23034668,0.131591797,0.457013532,0.3536554,4.365658141
1.140258789,0.083129883,0.144775391,0.479529612,0.077866732,4.365658141
1.116333008,0.063110352,0.047851563,0.498448448,-0.170209838,4.365658141
1.137329102,0.048950195,0.000488281,0.480728693,-0.183399731,4.365658141
1.070068359,-0.064208984,-0.001953125,0.455414757,0.066542077,4.365658141
1.032226563,-0.059204102,0.024291992,0.316854267,0.39016076,4.293713271
1.056884766,-0.094116211,0.151733398,0.287410163,0.382033654,4.214707145
1.074951172,-0.232177734,0.113891602,0.278083976,0.064810071,4.113717865
1.067626953,-0.256103516,0.104736328,0.271289183,-0.116117954,4.07241618
0.920166016,-0.361206055,0.064086914,0.239713379,-0.161150114,3.924795966
0.895874023,-0.520874023,0.017944336,0.253569428,-0.0028714,3.835797497
0.901367188,-0.574707031,0.016479492,0.330843547,0.34286367,3.726014955
0.896606445,-0.675048828,0.06628418,0.376541863,0.168330744,3.670457527
0.852050781,-0.702514648,0.028076172,0.396526549,0.01857883,3.61596595
0.76940918,-0.614746094,0.213378906,0.413180454,-0.129307847,3.439567787
0.757080078,-0.75012207,0.110473633,0.420508172,-0.131572778,3.31846059
0.747558594,-0.761962891,-0.025024414,0.357623027,0.010052031,3.171772994
0.707519531,-0.852783203,-0.016967773,0.317253961,0.074269489,3.132070084
0.486572266,-0.908325195,0.04675293,0.327645997,-0.010998505,3.002436087
0.401123047,-0.877807617,0.202026367,0.336172797,-0.277594218,2.945146653
0.422973633,-0.848632813,0.27331543,0.362152889,-0.435340007,2.895717863
0.526977539,-0.855834961,0.046508789,0.336039566,-0.487433422,2.82883578
0.540893555,-0.85534668,0.016235352,0.282613838,-0.392173085,2.808318169
0.441650391,-0.882446289,0.152587891,0.198944619,-0.258275688,2.734508062
0.280517578,-0.862792969,0.220947266,0.193348907,-0.308903559,2.687344203
0.265014648,-0.885742188,0.263427734,0.174430071,-0.574833116,2.600743896
0.271972656,-1.002197266,0.088867188,0.183090101,-0.635719793,2.55278065
0.229125977,-1,-0.024780273,0.23345151,-0.546588093,2.455521844
0.170410156,-0.942504883,0.081298828,0.265160546,-0.464251186,2.22636411
0.152954102,-0.904052734,0.184326172,0.285145232,-0.468781048,2.103125213
0.105712891,-0.919677734,0.206054688,0.217463761,-0.51194797,1.870503467
0.036987305,-0.982299805,0.122314453,0.193215676,-0.442401262,1.772312042
0.011108398,-0.998046875,0.088745117,0.216397911,-0.264404325,1.568335013
0.0078125,-1.050170898,0.211791992,0.270489795,-0.307704478,1.323988918
0.024780273,-1.067504883,0.197387695,0.326979841,-0.402165428,1.17063976
0.031738281,-1.048339844,0.084228516,0.324048754,-0.447064356,0.863275288
0.07409668,-1.059692383,0.075561523,0.260097758,-0.299444141,0.746298258
0.046630859,-1.098754883,0.188842773,0.13139638,0.015514512,0.513143587
-0.017456055,-1.115722656,0.24621582,0.122203424,0.024041311,0.195120616
0.001953125,-1.077148438,0.180908203,0.148183516,-0.06735532,0.017390141
0.055053711,-1.08996582,0.130126953,0.125134512,-0.071219026,-0.322882448
0.075805664,-1.15234375,0.115600586,0.02294615,0.288638555,-0.673147379
0.064941406,-1.173583984,0.13293457,-0.017689378,0.424934114,-0.889248451
0.026123047,-1.063110352,0.121337891,-0.142260588,0.466502261,-1.344632832
0.012329102,-1.053344727,0.14453125,-0.226729195,0.457708999,-1.5334215
0.042724609,-1.076538086,0.15612793,-0.345304999,0.536581894,-1.884219356
0.153076172,-1.10144043,0.112060547,-0.370752166,0.599333808,-2.066879387
0.192382813,-1.05859375,0.121948242,-0.405791982,0.689264895,-2.428202512
0.124145508,-1.009643555,0.107177734,-0.598044662,0.441588019,-2.782597612
0.181396484,-1.071777344,0.14440918,-0.697834862,0.397488478,-2.958862543
0.205322266,-1.046020508,0.166625977,-0.737671003,0.549771786,-3.269824259
0.343505859,-0.929199219,0.141357422,-0.754724601,0.564826917,-3.551475101
0.393554688,-0.894287109,0.080444336,-0.802687848,0.552702874,-3.637808945
0.415405273,-0.869262695,0.189941406,-0.823871615,0.564027529,-3.873761472
0.55871582,-0.880004883,-0.010864258,-0.992409135,0.861266427,-4.272122882
0.659057617,-0.87878418,0.072509766,-1.033177894,1.162235799,-4.365651213
0.55847168,-0.764648438,0.152099609,-0.930056914,1.55753289,-4.365651213
0.580322266,-0.744995117,0.261108398,-0.801222304,1.560463978,-4.365651213
0.624633789,-0.727416992,0.240600586,-0.505715413,1.220591083,-4.365651213
0.743041992,-0.624023438,-0.150512695,-0.471874678,0.983705937,-4.365651213
0.757324219,-0.551269531,-0.206176758,-0.505981875,0.727635493,-4.365651213
0.732788086,-0.475830078,0.061645508,-0.446294279,0.689131664,-4.365651213
0.825805664,-0.491455078,0.132568359,-0.264700098,0.658754941,-4.365651213
1.002929688,-0.441162109,0.107910156,-0.164643437,0.638770255,-4.365651213
0.994018555,-0.371582031,0.083862305,-0.022485703,0.594803946,-4.365651213
0.943603516,-0.217407227,0.099609375,0.037468355,0.586943302,-4.365651213
0.871582031,-0.185668945,0.061645508,0.264760852,0.732964742,-4.365651213
0.981201172,-0.017089844,0.139404297,0.556270806,1.020610991,-4.365651213
1.089477539,0.086791992,0.235839844,0.617024252,1.138920332,-4.365651213
1.094360352,0.131591797,0.383178711,0.716015064,1.25896168,-4.365651213
0.991699219,0.197998047,0.233398438,0.801949214,1.176358311,-4.365651213
0.890380859,0.340087891,0.215820313,0.991137576,0.751084191,-4.365651213
0.838989258,0.428344727,0.37878418,1.078004345,0.271052031,-4.365651213
0.872070313,0.497802734,0.376220703,1.064947683,0.205102567,-4.365651213
0.858886719,0.569458008,0.257080078,0.992203426,0.581214359,-4.365651213
0.832275391,0.542602539,0.155761719,0.990204957,0.952396595,-4.365651213
0.665771484,0.714111328,0.174560547,1.065880302,1.489718189,-4.191917675
0.588256836,0.849853516,0.272460938,1.12583436,1.387130134,-4.041099911
0.593017578,0.836547852,0.242675781,1.264794544,0.648895829,-3.758916143
0.531738281,0.822753906,0.19921875,1.310093166,0.305425691,-3.633279083
0.474975586,0.855102539,0.133056641,1.299168204,0.205235798,-3.388666525
0.447753906,0.887207031,0.131225586,1.180192706,0.821563517,-3.176962084
0.425415039,0.959106445,0.171264648,1.08826315,1.131992308,-3.079436816
0.347167969,1.004638672,0.151245117,0.961693471,1.089091848,-2.864135131
0.296264648,1.016723633,0.103149414,0.926786886,0.801312369,-2.756351057
0.190551758,1.009033203,0.119384766,0.787293777,0.405615584,-2.530790567
0.139160156,1.009399414,0.137817383,0.673514298,0.354188325,-2.425404656
0.108520508,0.994384766,0.103637695,0.44395687,0.266122475,-2.247940643
0.123291016,0.967041016,0.057861328,0.34616514,0.214162291,-2.202642021
0.078613281,0.967285156,0.079956055,0.145918585,0.109708999,-2.108181072
0.061035156,1.001831055,0.131469727,0.033204956,0.01644713,-2.005326554
0.006103516,1.002319336,0.098510742,-0.151453544,-0.204183804,-1.715548606
-0.029907227,0.968017578,0.037597656,-0.196752166,-0.329287939,-1.578720122
-0.011352539,0.975341797,0.020751953,-0.22299872,-0.500223621,-1.341701745
-0.037597656,0.982421875,0.06652832,-0.235389225,-0.46358503,-1.20700496
-0.071655273,0.989013672,0.102172852,-0.278689379,-0.244419639,-0.879789033
-0.127319336,0.967895508,0.067260742,-0.283485703,-0.186064356,-0.687269891
-0.154052734,0.984375,0.070678711,-0.238320313,-0.259608,-0.257332677
-0.195922852,0.998657227,0.083984375,-0.218868552,-0.340212901,-0.028707868
-0.191772461,1.012695313,0.095092773,-0.21007529,-0.504353789,0.461183403
-0.170166016,1.02734375,0.14050293,-0.207144202,-0.531799425,0.728978197
-0.165405273,1.013305664,0.152099609,-0.197818016,-0.561643223,1.330250786
-0.132324219,0.931152344,0.137939453,-0.174369317,-0.614935719,1.638414645
-0.109008789,0.895629883,0.150878906,-0.086969623,-0.802658537,2.1994514
-0.047851563,0.92565918,0.216186523,0.02720955,-1.123346133,2.743301324
0.094726563,0.990478516,0.19909668,-0.029280496,-1.120281815,3.222667328
0.144165039,0.970825195,0.177124023,-0.108686316,-0.901249655,3.400664265
0.230957031,0.881469727,0.142333984,-0.195952778,-0.562709073,3.725348798
0.268554688,0.836425781,0.103515625,-0.10162506,-0.70420065,4.136233944
0.368652344,0.788452148,0.205078125,-0.052063038,-0.847557465,4.304105308
0.495117188,0.737792969,0.159423828,0.014685813,-0.844626378,4.365658141
0.627075195,0.713012695,0.059326172,0.034004343,-0.731379823,4.365658141
0.688476563,0.745483398,0.063598633,0.070909397,-0.49262944,4.365658141
0.777832031,0.694824219,0.158325195,0.088762383,-0.398301722,4.365658141
0.777099609,0.660400391,0.201416016,0.170433133,-0.25201382,4.365658141
0.807861328,0.592529297,0.182861328,0.239446916,-0.256143988,4.365658141
0.790771484,0.488525391,0.111206055,0.431299903,-0.510215964,4.365658141
0.864624023,0.426513672,0.020507813,0.519898678,-0.522739701,4.365658141
1.000732422,0.341186523,-0.009155273,0.616224865,0.000592613,4.365658141
1.027954102,0.32019043,0.153076172,0.603434665,0.305025997,4.365658141
1.010375977,0.279907227,0.077758789,0.607564834,0.308090316,4.365658141
0.993530273,0.190795898,0.056274414,0.670050286,0.080264894,4.365658141
1.062988281,0.095214844,0.042724609,0.797152889,-0.160084264,4.365658141
1.104736328,0.017944336,0.031494141,0.722143701,0.099316962,4.365658141
1.071411133,-0.030029297,0.141113281,0.633411695,0.277180668,4.365658141
0.962768555,-0.100830078,0.176879883,0.598771572,0.407614053,4.365658141
0.973754883,-0.195556641,0.265014648,0.58131828,0.230816196,4.365658141
1.104370117,-0.307495117,0.037353516,0.611828234,-0.23162944,4.310367176
1.10559082,-0.307006836,-0.05090332,0.599704191,-0.219771859,4.228296732
0.959106445,-0.413574219,0.041137695,0.516168203,0.266255706,4.165278355
0.884521484,-0.539916992,0.197265625,0.512437728,0.398954022,4.154086931
0.862548828,-0.565551758,0.085205078,0.561733287,0.115837636,4.130638232
0.868652344,-0.59777832,-0.002929688,0.604900209,-0.405229746,4.039907757
0.815063477,-0.607299805,0.07434082,0.538817514,-0.342877526,3.980220162
0.768188477,-0.683105469,0.10559082,0.376541863,0.221223547,3.867506532
0.689086914,-0.819458008,0.127563477,0.361753195,0.392692154,3.798226287
0.672363281,-0.853515625,0.137451172,0.461010469,0.100649274,3.632619855
0.608398438,-0.887329102,0.016357422,0.522829765,-0.090137862,3.523903163
0.577514648,-0.845703125,-0.011352539,0.481661312,0.065342995,3.297676516
0.485839844,-0.859863281,0.206176758,0.396126855,0.341664589,3.176302856
0.473510742,-0.907592773,0.180541992,0.247440791,0.722306243,2.943148185
0.405883789,-0.935302734,0.105834961,0.101019657,0.590140852,2.815779119
0.412353516,-0.953613281,0.130493164,-0.010095198,0.355254175,2.811782181
0.288330078,-0.961425781,0.096191406,-0.1585148,0.084395063,2.798192595
0.189941406,-0.909790039,0.182495117,-0.200615872,0.061745752,2.750495811
0.157592773,-0.94909668,0.25769043,-0.198750634,0.024307773,2.676152779
0.194091797,-0.976928711,0.130371094,-0.126805764,-0.097865274,2.544520313
0.126464844,-0.99597168,0.041503906,-0.055793513,-0.204983192,2.469377893
0.074951172,-0.986816406,0.050415039,-0.069516331,-0.221903559,2.431673452
-0.004638672,-1.002075195,0.258422852,-0.13599872,-0.298644754,2.237155841
-0.001708984,-1.02722168,0.251342773,-0.060323375,-0.535663131,1.946978199
0.002685547,-0.993164063,0.140625,-0.000902242,-0.658635566,1.777374829
0.045166016,-1.001586914,0.032104492,0.047860392,-0.545389011,1.455088458
0.01953125,-1.036987305,0.078491211,0.057186579,-0.399367572,1.3060027
0.008911133,-1.086303711,0.153686523,0.085831296,-0.278127143,0.937218626
0.02734375,-1.052124023,0.162597656,0.106881832,-0.278393605,0.446128273
0.057739258,-1.032958984,0.149291992,0.097155951,-0.235493146,0.214572377
0.095214844,-1.102539063,0.102050781,0.051057942,-0.03724506,-0.233750748
0.077026367,-1.101196289,0.06640625,0.03693543,0.126762597,-0.464374025
0.052001953,-1.048461914,0.064453125,-0.025550021,0.453312368,-0.973583827
0.017456055,-1.071533203,0.118652344,-0.077776668,0.544176074,-1.216197916
0.000610352,-1.110839844,0.170288086,-0.183162579,0.484888172,-1.573657334
0.047973633,-1.129272461,0.189819336,-0.223265183,0.405615584,-1.725008024
0.074707031,-1.128295898,0.153564453,-0.300672533,0.273716656,-2.043830383
0.084594727,-1.100952148,0.090942383,-0.402461201,0.021643149,-2.425138193
0.197631836,-1.133422852,0.037231445,-0.469476515,-0.014862211,-2.621654273
0.194824219,-1.117431641,0.083618164,-0.528098261,0.106511449,-3.052923799
0.311767578,-1.015380859,-0.073120117,-0.674652626,0.427199045,-3.544413846
0.322998047,-1.008300781,-0.039550781,-0.728078353,0.690730439,-3.763712468
0.341796875,-1.024780273,0.18762207,-0.672520926,0.830889704,-4.209370967
0.482910156,-0.928955078,0.125366211,-0.59031725,0.660886641,-4.365651213
0.524291992,-0.892944336,0.078369141,-0.604173299,0.14421589,-4.365651213
0.698120117,-0.96484375,-0.045898438,-0.941248338,0.647963211,-4.365651213
0.718994141,-0.972900391,0.173706055,-0.943513269,1.00981926,-4.365651213
0.66809082,-0.839111328,0.002807617,-0.730076822,1.012217423,-4.365651213
0.661010742,-0.700927734,-0.002685547,-0.556476515,0.684202108,-4.365651213
0.687744141,-0.598510742,-0.04296875,-0.590716944,0.309156166,-4.365651213
0.837524414,-0.768188477,0.194580078,-0.632285091,0.539512981,-4.365651213
0.855957031,-0.692016602,0.162963867,-0.486796576,0.839949428,-4.365651213
0.852539063,-0.459350586,0.079101563,-0.338376974,0.681271021,-4.365651213
0.778320313,-0.319091797,0.088134766,-0.107220772,0.038696747,-4.365651213
0.744140625,-0.224243164,0.071044922,-0.08870163,-0.096666193,-4.365651213
0.924072266,-0.13269043,0.103759766,-0.09736166,0.162601801,-4.365651213
1.005126953,-0.124633789,0.06640625,-0.170905305,0.409612521,-4.365651213
1.080810547,-0.115966797,0.171630859,-0.127871614,0.855004559,-4.365651213
0.906005859,0.006469727,0.168457031,-0.020087541,0.729367499,-4.365651213
0.904785156,0.114746094,0.255615234,0.065047222,0.505405783,-4.365651213
0.910766602,0.166625977,0.162597656,0.258765446,0.182586487,-4.365651213
0.833618164,0.205688477,0.109008789,0.360021189,0.206967804,-4.365651213
0.788085938,0.384399414,0.143798828,0.416111541,0.387762598,-4.365651213
0.888427734,0.533081055,0.278320313,0.3848022,0.43199537,-4.365651213
0.895141602,0.563354492,0.170410156,0.36335197,0.506738096,-4.191784444
0.864135742,0.582641602,0.026489258,0.459944619,0.669280209,-3.926654275
0.782348633,0.612304688,0.024536133,0.497915523,0.736162292,-3.850845699
0.686035156,0.720825195,0.147583008,0.491653655,0.894574237,-3.768642024
0.644165039,0.747680664,0.122802734,0.451817514,0.994097974,-3.717214765
0.555786133,0.806884766,0.135498047,0.399057942,1.056050501,-3.571992712
0.489624023,0.821533203,0.138305664,0.396793011,1.003957086,-3.544014152
0.424438477,0.811401367,0.190917969,0.39772563,0.895240393,-3.511505729
0.437011719,0.839233398,0.226318359,0.384402506,0.873656932,-3.439560859
0.426269531,0.883544922,0.260620117,0.313656717,0.782260301,-3.190551671
0.357666016,0.90222168,0.208740234,0.27102272,0.68979782,-3.087563922
0.280639648,0.934814453,0.079101563,0.266626089,0.571355247,-3.001763003
0.222900391,0.954589844,0.083251953,0.243310622,0.698990776,-2.890514917
0.249633789,1.005493164,0.128417969,0.206672031,0.767338402,-2.750755345
0.192260742,0.992919922,0.177246094,0.132328999,0.623848356,-2.334141256
0.008666992,0.982177734,0.1171875,0.106215675,0.174059688,-2.002129004
-0.041381836,0.985351563,0.098510742,0.08090174,0.038829979,-1.897009555
-0.010986328,1.008178711,0.101196289,-0.026216178,0.146614052,-1.712883981
0.015258789,0.985717773,0.140991211,-0.070848643,0.213762598,-1.581651209
-0.042236328,0.990356445,0.126953125,-0.088834861,0.112906548,-1.240179539
-0.108154297,1.010253906,0.092773438,-0.064320312,0.014448662,-1.070709401
-0.185913086,0.988525391,0.117797852,-0.037940527,-0.111854555,-0.738563918
-0.163696289,0.982055664,0.138671875,-0.034076821,-0.119049042,-0.544179538
-0.163085938,0.974365234,0.136474609,-0.014891522,-0.147427296,-0.123035587
-0.183227539,0.986450195,0.130249023,-0.001035473,-0.21124506,0.0624223
-0.158691406,0.992675781,0.1484375,-0.009429041,-0.290251186,0.467045578
-0.129394531,0.999145508,0.140380859,-0.045401476,-0.299843835,0.695403924
-0.135742188,0.981201172,0.154907227,-0.130136545,-0.293448735,1.143993512
-0.187988281,0.939331055,0.21496582,-0.181030879,-0.396170022,1.58525538
-0.179321289,0.921875,0.224609375,-0.171571461,-0.528735106,1.829734707
-0.081176758,0.929931641,0.117553711,-0.080441293,-0.838231278,2.367322763
0.101196289,0.927978516,0.116699219,-0.016889991,-0.962536026,2.693073146
0.18347168,0.922851563,0.182128906,-0.017955841,-1.017560528,3.402129809
0.187744141,0.939819336,0.182861328,-0.105355535,-0.786670788,4.027517252
0.285400391,0.867553711,0.186889648,-0.150787388,-0.741238935,4.260272229
0.3671875,0.805908203,0.143676758,-0.204479578,-0.784006163,4.365658141
0.468994141,0.663696289,0.164428711,-0.155450481,-0.829438016,4.365658141
0.520141602,0.616210938,0.187133789,-0.116413728,-0.777611064,4.365658141
0.661621094,0.568359375,0.184692383,-0.062988,-0.468781048,4.365658141
0.721557617,0.585205078,0.188598633,-0.048599026,-0.347274157,4.365658141
0.867797852,0.569580078,0.193847656,-0.068850175,-0.333951033,4.365658141
0.9375,0.543334961,0.107177734,-0.107620466,-0.270133268,4.365658141
0.933837891,0.398071289,0.163574219,-0.158781262,0.094920331,4.365658141
0.898803711,0.353027344,0.234130859,-0.166375443,0.21083151,4.365658141
0.975219727,0.268066406,0.206542969,-0.092698567,-0.007001568,4.365658141
1.065429688,0.183349609,0.177978516,-0.024217709,-0.266669256,4.365658141
1.128417969,0.022583008,0.102539063,0.132728692,-0.551784111,4.365658141
1.10168457,-0.034667969,0.076538086,0.197212613,-0.460121017,4.365658141
1.08203125,-0.142211914,0.11706543,0.226923179,-0.253479363,4.365658141
1.164916992,-0.12097168,0.114624023,0.187486732,0.160869795,4.365658141
1.221069336,-0.2109375,0.097900391,0.141921648,0.288638555,4.365658141
1.209106445,-0.275024414,0.135253906,0.105682751,0.267454788,4.365658141
1.086669922,-0.342163086,-0.003051758,0.095290714,0.198840699,4.365658141
1.055541992,-0.294677734,0.091430664,0.034404037,0.112107161,4.365658141
0.957397461,-0.391479492,0.234375,0.02720955,0.106911143,4.273062428
0.832397461,-0.556030273,0.099609375,0.06264906,0.093588019,4.168742367
0.838134766,-0.647705078,0.04309082,0.121936962,0.0035237,3.994742367
0.819946289,-0.746337891,0.090942383,0.117806793,-0.067088858,3.967429963
0.763183594,-0.718261719,0.084228516,0.151381066,-0.072418107,3.889089993
0.652099609,-0.671630859,0.146484375,0.188952276,-0.02978411,3.794629043
0.644897461,-0.69140625,0.144042969,0.209203424,-0.026853023,3.56653716
0.624267578,-0.865722656,0.069824219,0.192949213,0.041894297,3.488863346
0.591796875,-0.934082031,0.068359375,0.131529611,0.146081127,3.426777588
0.463134766,-0.98815918,0.090576172,0.206272337,0.080797819,3.331783714
0.411865234,-0.903930664,0.107299805,0.250505109,-0.050701415,3.247848032
0.440429688,-0.83972168,0.240600586,0.229054879,-0.274929593,3.081308981
0.423583984,-0.890136719,0.253295898,0.206005875,-0.223502334,2.999904693
0.369995117,-0.992553711,0.064575195,0.175096227,0.128228141,2.948743897
0.295898438,-0.98828125,0.080322266,0.185221801,0.199506855,2.931157373
0.215332031,-0.993774414,0.244628906,0.252503578,-0.093468643,2.786201783
0.235839844,-0.895996094,0.145019531,0.273021189,-0.285055167,2.696936852
0.202636719,-0.881469727,0.151245117,0.282214144,-0.465183805,2.528399333
0.10168457,-0.913452148,0.15625,0.293405569,-0.411225152,2.439400864
0.079101563,-0.947387695,0.154296875,0.288609244,-0.150891308,2.255008827
-0.010620117,-0.996948242,0.176147461,0.248639872,-0.070019945,2.012261507
0.024169922,-1.001708984,0.186889648,0.227189642,-0.132372166,1.870237004
0.052490234,-1.006835938,0.150878906,0.216664374,-0.258009225,1.621893972
-0.025878906,-1.03137207,0.243652344,0.306062536,-0.253346132,1.411655074
-0.035644531,-1.057983398,0.247192383,0.345498984,-0.235093452,1.242184936
0.014526367,-1.085571289,0.162475586,0.348030377,-0.163415045,0.790397799
0.031494141,-1.06237793,0.181152344,0.292339719,-0.070952564,0.54991541
0.022949219,-1.130859375,0.196777344,0.13672563,0.088258769,0.113849559
-0.000732422,-1.170776367,0.200439453,0.065979841,0.111441005,-0.085864071
-0.016845703,-1.170288086,0.21496582,-0.040072227,0.200439473,-0.550174944
-0.001342773,-1.176025391,0.139770508,-0.086703161,0.287306242,-0.829560856
-0.006835938,-1.138305664,0.104614258,-0.177167173,0.384298586,-1.424038651
0.031494141,-1.122192383,0.034301758,-0.248978812,0.382966273,-1.685838039
0.014038086,-1.16394043,0.163330078,-0.38194359,0.516330745,-2.173197917
0.031860352,-1.155639648,0.21496582,-0.374749103,0.574019872,-2.726906953
0.020507813,-1.022705078,0.206420898,-0.372750635,0.567225079,-3.018416908
0.025024414,-0.957519531,0.228637695,-0.304669471,0.380035186,-3.552141258
0.103759766,-0.905639648,0.128540039,-0.363157985,0.30635831,-3.736133601
0.365478516,-1.013793945,-0.008056641,-0.576994126,0.458641618,-3.962493479
0.420410156,-1.084106445,0.123413086,-0.586320313,0.569356779,-4.093992713
0.396484375,-1.070678711,0.270874023,-0.44749336,0.635839168,-4.365651213
0.290283203,-0.893432617,0.291748047,-0.35183333,0.314485415,-4.365651213
0.367797852,-0.854614258,0.195556641,-0.438700099,0.130892766,-4.365651213
0.751831055,-0.975341797,-0.101318359,-0.75139382,0.271718187,-4.365651213
0.862304688,-1.029663086,0.017700195,-0.764850176,0.549638555,-4.365651213
0.76965332,-0.893676758,0.162109375,-0.578726132,1.080964743,-4.365651213
0.674682617,-0.761352539,0.20324707,-0.48399872,1.155041312,-4.365651213
0.685913086,-0.731933594,0.231323242,-0.303070696,0.82942416,-4.365651213
0.834472656,-0.691040039,0.099975586,-0.245781262,0.615854482,-4.365651213
0.929199219,-0.632202148,0.093261719,-0.215004846,0.493015278,-4.365651213
0.899047852,-0.41418457,0.180297852,-0.18649336,0.569889704,-4.365651213
0.891235352,-0.363525391,0.24206543,-0.078176362,0.760543609,-4.365651213
0.83203125,-0.271240234,0.322021484,-0.002634248,0.782926457,-4.365651213
0.836425781,-0.202758789,0.291625977,0.188152888,0.60706122,-4.365651213
0.872924805,-0.088623047,0.188354492,0.29673635,0.460240393,-4.365651213
0.866943359,-0.052978516,0.204345703,0.477930837,0.294234267,-4.365651213
0.877441406,0.123168945,0.357299805,0.499514298,0.288905017,-4.365651213
0.905883789,0.1875,0.398681641,0.417710316,0.317682965,-4.365651213
0.857299805,0.326904297,0.344970703,0.330177391,0.087459381,-4.365651213
0.858398438,0.386474609,0.278320313,0.311658249,-0.101329287,-4.365651213
0.82421875,0.393554688,0.268554688,0.266492858,-0.116251185,-4.365651213
0.814331055,0.504882813,0.288085938,0.151247835,0.023241923,-4.365651213
0.828613281,0.519287109,0.207519531,0.125400974,0.211231204,-4.265994245
0.6796875,0.595336914,0.177246094,0.174563302,0.214961679,-4.172865608
0.560180664,0.697143555,0.14855957,0.279949213,0.03576566,-4.098922269
0.486694336,0.833984375,0.220214844,0.316854267,-0.091736637,-4.091328088
0.529174805,0.869506836,0.2109375,0.301532674,-0.205516117,-3.926521044
0.569702148,0.843505859,0.190673828,0.230520423,-0.15861872,-3.809144321
0.531494141,0.826538086,0.171630859,0.088762383,0.034033654,-3.578787506
0.348999023,0.831176758,0.065429688,0.067845078,0.170462444,-3.540416908
0.257202148,0.866577148,0.074707031,0.090894083,0.550837636,-3.524828853
0.181274414,0.961669922,0.146606445,0.117673562,0.607460914,-3.450619052
0.232543945,0.952636719,0.282836914,0.12606713,0.340598739,-3.160041716
0.234741211,0.987670898,0.269775391,0.12606713,0.121033654,-2.902106035
0.128051758,0.977050781,0.154663086,0.131796074,-0.107324692,-2.416877856
0.098266602,0.979492188,0.136962891,0.13565978,0.001125538,-2.196113691
0.075195313,1.036376953,0.160400391,0.07557249,0.391892766,-1.712351056
-0.02722168,1.07019043,0.142578125,0.003094695,0.442387406,-1.295204042
-0.09765625,1.018188477,0.107421875,0.016018126,0.258261832,-1.143053965
-0.123291016,0.999633789,0.095947266,0.076904803,-0.155954095,-0.842351055
-0.074707031,0.99206543,0.16796875,0.088629152,-0.227898965,-0.642370963
-0.042724609,0.986206055,0.142089844,0.071575553,-0.070419639,-0.148349522
-0.094970703,1.005004883,0.107055664,0.064913991,0.020976992,0.108920003
-0.151245117,1.002807617,0.129272461,0.033471418,-0.018859149,0.489561658
-0.16418457,1.027587891,0.146240234,-0.014891522,-0.06628947,0.621194123
-0.135131836,1.057373047,0.173461914,-0.178499486,-0.058961752,0.975589223
-0.114746094,1.084594727,0.194702148,-0.281487235,-0.062425764,1.221001169
-0.112182617,1.080688477,0.184082031,-0.482533177,-0.119049042,1.782970541
-0.027709961,1.029907227,0.143066406,-0.639879272,-0.155154708,2.404893973
0.027954102,0.984130859,0.157470703,-0.708226898,-0.167678444,2.744633636
0.119873047,0.91027832,0.248657227,-0.841857833,-0.122513054,3.421315107
0.173828125,0.864379883,0.280029297,-0.890886929,-0.127176147,3.741469778
0.235473633,0.797607422,0.288696289,-0.966295811,-0.363261906,4.272662735
0.282348633,0.769165039,0.296508789,-1.005066102,-0.550318567,4.365658141
0.417602539,0.71496582,0.216552734,-1.050631187,-0.675555934,4.365658141
0.464599609,0.675537109,0.204101563,-1.045968093,-0.588023008,4.365658141
0.596069336,0.517333984,0.238769531,-0.892618935,-0.433208307,4.365658141
0.670410156,0.471801758,0.260009766,-0.72661281,-0.557379823,4.365658141
0.787109375,0.405517578,0.28527832,-0.395266714,-1.17557278,4.365658141
0.947753906,0.37902832,0.179321289,-0.191422916,-1.302408921,4.365658141
1.026855469,0.378662109,0.244628906,-0.144925213,-1.046471707,4.365658141
1.061157227,0.333129883,0.332397461,-0.096695504,-0.389774922,4.365658141
1.067993164,0.225097656,0.29296875,-0.072713881,-0.302641691,4.365658141
1.141723633,0.244750977,0.217041016,0.047860392,-0.685281814,4.365658141
1.150024414,0.159545898,0.220703125,0.105016594,-0.784139395,4.365658141
1.102416992,0.110961914,0.310913086,0.165903271,-0.516877526,4.365658141
1.026489258,0.098144531,0.335083008,0.164570959,-0.264670787,4.365658141
0.981323242,0.007446289,0.279541016,0.213333593,-0.293581967,4.365658141
0.932128906,-0.189697266,0.220336914,0.323382598,-0.628258843,4.365658141
0.937988281,-0.307495117,0.208496094,0.625284589,-1.304007695,4.365658141
1.005493164,-0.436401367,0.236938477,0.746258555,-1.454026072,4.365658141
1.051757813,-0.455444336,0.221679688,0.821667438,-1.31519912,4.365658141
0.985473633,-0.388793945,0.116943359,0.643004344,-0.701269563,4.365658141
0.89453125,-0.428344727,0.159667969,0.578653655,-0.544056699,4.365658141
0.854125977,-0.67980957,0.111816406,0.62435197,-0.612804019,4.227497344
0.867675781,-0.733520508,0.087280273,0.685238647,-0.805323162,4.086671923
0.84753418,-0.807617188,0.053466797,0.654728693,-0.780941845,4.036044051
0.720458984,-0.794311523,0.076171875,0.498581679,-0.41309039,3.921331953
0.53503418,-0.807495117,0.153686523,0.386134512,-0.104260374,3.697903163
0.544433594,-0.877563477,0.229248047,0.389198831,-0.139166959,3.579060896
0.595214844,-0.931396484,0.087524414,0.478064068,-0.399900497,3.40119719
0.646728516,-0.942138672,-0.029541016,0.503111541,-0.476241998,3.330451401
0.539428711,-0.911376953,-0.042602539,0.427036503,-0.294647817,3.187760742
0.429443359,-0.912231445,0.146972656,0.374943088,-0.166346132,3.055462121
0.303466797,-0.952148438,0.196655273,0.36441782,-0.077347663,2.660697955
0.3671875,-0.99597168,0.12512207,0.417310622,-0.110522242,2.491893973
0.307617188,-0.977172852,0.053955078,0.509773103,-0.190061293,2.233025672
0.29699707,-0.953125,0.146850586,0.468338187,-0.218039853,2.134168092
0.255493164,-0.991821289,0.249389648,0.402388723,-0.200853023,1.963898566
0.155517578,-0.976074219,0.161010742,0.42024171,-0.052699884,1.752993512
0.084106445,-0.947021484,0.121582031,0.458612307,-0.017393605,1.602975135
0.005493164,-0.90222168,0.082763672,0.506708785,-0.006868337,1.444962884
0.006469727,-0.944091797,0.149414063,0.542414757,-0.000473237,1.188359515
0.01965332,-0.991943359,0.269775391,0.515768509,0.012050499,1.09123394
-0.02734375,-0.998046875,0.284301758,0.494584742,0.071471633,0.955604537
-0.044189453,-1.037719727,0.231811523,0.521630684,0.062944833,0.890587692
-0.026977539,-1.040649414,0.209106445,0.592243241,-0.030716729,0.736039453
-0.003417969,-1.032592773,0.26965332,0.549875707,-0.052166959,0.519538687
0.00402832,-1.040161133,0.312011719,0.485924711,-0.069353789,0.371918472
0.038574219,-1.058959961,0.3046875,0.347630683,-0.016327755,0.007930723
0.098510742,-1.029418945,0.253051758,0.283013532,0.056949427,-0.195113688
0.125732422,-1.008300781,0.214111328,0.111944619,0.199373624,-0.603867134
0.116821289,-0.98840332,0.182495117,-0.000102855,0.286773317,-0.79891767
0.045532227,-1.062988281,0.243896484,-0.183695504,0.350724313,-1.207671116
0.029418945,-1.079345703,0.259155273,-0.238586775,0.337001495,-1.426703276
0.015136719,-1.034545898,0.309448242,-0.230326438,0.095986181,-1.92751951
0.000610352,-0.982910156,0.347412109,-0.135332564,-0.261340006,-2.196779847
0.058105469,-0.887695313,0.251464844,-0.060190144,-1.100563591,-2.782464381
0.354003906,-0.950073242,-0.003295898,-0.460949716,-0.306505397,-3.422240798
0.396850586,-1.068725586,0.237548828,-0.605905306,0.495013746,-3.689102973
0.385742188,-1.051513672,0.275756836,-0.665059976,1.187283273,-4.123436817
0.26550293,-0.982788086,0.373657227,-0.587252932,0.899903487,-4.24827449
0.244018555,-0.937744141,0.36730957,-0.377014034,-0.292382886,-4.365651213
0.433349609,-0.804443359,0.236206055,-0.337977281,-0.78360647,-4.365651213
0.593994141,-0.839111328,0.14074707,-0.493324907,-0.515811676,-4.358856419
0.725585938,-0.88684082,0.286621094,-0.54515186,0.087059688,-4.276519513
0.686035156,-0.839355469,0.271240234,-0.488395351,0.424401189,-4.24934034
0.646362305,-0.664306641,0.291503906,-0.270961967,-0.466249655,-4.226291335
0.793945313,-0.60559082,0.260742188,-0.193821078,-0.83410111,-4.198179543
0.84753418,-0.543823242,0.103027344,-0.144658751,-0.684615658,-4.135294398
0.857666016,-0.467773438,0.012817383,-0.14679045,-0.310235872,-4.125568517
0.864868164,-0.438842773,0.198852539,-0.122275902,0.048022934,-4.091994244
0.868408203,-0.426025391,0.241088867,-0.100026285,-0.06628947,-4.025645087
0.935668945,-0.341308594,0.150634766,0.004560239,-0.532732044,-3.889083065
0.98425293,-0.219360352,0.056884766,0.037868049,-0.667828522,-3.935580768
0.994140625,-0.101074219,-0.067749023,0.041332061,-0.148359914,-4.08506622
1.007202148,-0.045776367,0.080932617,0.004427008,0.183519106,-4.103052437
1.043579102,-0.094970703,0.221679688,-0.02328509,0.393891235,-4.057087659
1.029663086,-0.169555664,0.145874023,0.057719504,0.256130132,-4.030841105
0.954101563,-0.047485352,-0.008911133,0.258898677,-0.259874463,-4.134095317
0.962524414,0.083007813,-0.051879883,0.316987498,-0.320094984,-4.228023341
1.041259766,0.21887207,0.147827148,0.320318279,-0.028851492,-4.261864076
1.051147461,0.300292969,0.176513672,0.284345844,0.18072125,-4.228289804
1.036376953,0.327636719,0.092651367,0.277151357,0.425999964,-4.1075823
1.003173828,0.366210938,0.101196289,0.309126855,0.382033654,-4.039234673
0.976074219,0.39074707,0.096679688,0.413180454,0.183519106,-3.983943708
0.943359375,0.41418457,0.071777344,0.423972184,0.164467039,-3.967822728
0.885253906,0.599609375,0.135253906,0.370146763,0.335535951,-3.902672652
0.897705078,0.649291992,0.119995117,0.287010469,0.488618647,-3.741729313
0.823364258,0.643798828,0.100097656,0.268757789,0.45890808,-3.687637429
0.758911133,0.6796875,0.058105469,0.288742475,0.324744221,-3.613427628
0.667358398,0.769165039,0.120483398,0.293005875,0.279978524,-3.614093784
0.647949219,0.791137695,0.16027832,0.217863455,0.254398126,-3.621687965
0.622558594,0.831665039,0.13659668,0.159508172,0.261992307,-3.580652743
0.593261719,0.862670898,0.12109375,0.071842015,0.192445599,-3.38919945
0.469604492,0.884399414,0.170166016,0.000163608,0.136488478,-3.20440772
0.432739258,0.884399414,0.167236328,-0.024617403,0.1839188,-3.162706341
0.373168945,0.889892578,0.153564453,-0.04686702,0.182186794,-3.089429159
0.370483398,0.900268555,0.134155273,-0.047133482,0.082529826,-3.032406188
0.405151367,0.918579102,0.081542969,-0.089101323,0.085594144,-2.880256111
0.244995117,0.967651367,0.138061523,-0.150387694,0.270519106,-2.802315835
0.141967773,0.967285156,0.168823242,-0.221399945,0.560430286,-2.612594549
0.069091797,0.923950195,0.151245117,-0.125473452,0.284241924,-2.300966677
0.067138672,0.927734375,0.134399414,-0.046600557,0.030569642,-2.081934517
0.059448242,0.973266602,0.124389648,0.036402505,-0.157019945,-1.647733904
-0.053100586,0.999511719,0.140625,0.0197486,-0.035379822,-1.477331147
-0.109619141,0.987060547,0.133300781,-0.040605152,0.162335339,-1.132928391
-0.1953125,0.959960938,0.112304688,-0.034210052,0.089724313,-0.954265297
-0.211425781,0.970336914,0.13293457,0.039466824,-0.236425764,-0.510738497
-0.217529297,0.975585938,0.138427734,0.073041097,-0.355268031,-0.235615985
-0.214233398,0.961303711,0.139770508,0.07344079,-0.406029134,0.295843434
-0.158081055,0.954711914,0.123657227,0.049059473,-0.364460987,0.525534093
-0.145141602,0.959106445,0.136230469,-0.003833329,-0.355268031,0.989978197
-0.165039063,0.952880859,0.175292969,-0.040072227,-0.429477832,1.202748489
-0.158813477,0.921508789,0.203369141,-0.124940527,-0.583226684,1.599111429
-0.116455078,0.908691406,0.211914063,-0.126672533,-0.754562059,2.054762272
0.005859375,0.885131836,0.186523438,-0.034210052,-0.981321631,2.646708674
0.146240234,0.850463867,0.123657227,3.03767E-05,-1.005303254,3.26370255
0.173950195,0.877685547,0.228393555,-0.12414114,-0.693009226,3.698036394
0.24621582,0.888549805,0.209716797,-0.168373911,-0.682483958,4.040040989
0.375854492,0.825561523,0.208862305,-0.10162506,-1.020624847,4.365658141
0.472412109,0.804077148,0.16796875,-0.045268245,-1.213676914,4.365658141
0.647583008,0.691894531,-0.054443359,-0.01142751,-1.029951034,4.365658141
0.766845703,0.706054688,0.14050293,-0.117213115,-0.33155287,4.365658141
0.806152344,0.670776367,0.167358398,-0.208742977,-0.055764202,4.365658141
0.8515625,0.592285156,0.159912109,-0.261102855,0.020177605,4.365658141
0.956298828,0.499633789,0.040527344,-0.116413728,-0.479173085,4.365658141
1.068237305,0.409423828,0.02355957,-0.039805764,-0.627725918,4.365658141
1.106811523,0.346679688,0.121948242,-0.050597495,-0.139166959,4.365658141
1.142333984,0.18347168,0.086425781,-0.114948184,0.541244987,4.365658141
1.140258789,0.132080078,0.081542969,-0.068850175,0.514465508,4.365658141
1.092407227,0.056030273,0.040771484,0.100619963,0.011917268,4.365658141
1.114135742,0.081542969,0.068359375,0.209469887,-0.138767265,4.365658141
1.142211914,-0.048950195,0.19543457,0.232652123,0.029104098,4.365658141
1.111694336,-0.126708984,0.163208008,0.25277004,0.319548203,4.365658141
1.081542969,-0.16796875,0.014526367,0.255834359,0.308756472,4.365658141
1.066894531,-0.172729492,0.040039063,0.250904803,0.176058156,4.365658141
1.000854492,-0.272094727,0.141479492,0.239047222,0.149012215,4.348604542
0.997680664,-0.390380859,0.170410156,0.28394615,0.181653869,4.214040989
0.975341797,-0.441772461,0.077514648,0.307128386,0.195110224,4.159549411
0.927490234,-0.446411133,0.03125,0.357489795,0.171395063,4.078011892
0.803466797,-0.516601563,0.091552734,0.362419351,0.187649274,4.046569319
0.771240234,-0.577880859,0.191894531,0.362152889,0.279312368,3.982351861
0.778442383,-0.747680664,0.185668945,0.387866518,0.278379749,3.934788309
0.790527344,-0.745727539,0.16809082,0.461410163,0.109708999,3.847655077
0.734863281,-0.752075195,0.137939453,0.502045691,-0.046304784,3.785569319
0.695068359,-0.792480469,0.091552734,0.509773103,-0.271199118,3.659399334
0.545410156,-0.791381836,0.18347168,0.504177391,-0.217373697,3.551482029
0.485717773,-0.823364258,0.218017578,0.491653655,-0.080545213,3.330584632
0.489013672,-0.872680664,0.228637695,0.485924711,-0.048569715,3.264501937
0.440917969,-0.928222656,0.213134766,0.45248367,-0.206715198,3.183897036
0.432983398,-0.942016602,0.198364258,0.429168203,-0.326090389,3.160848032
0.382568359,-0.937133789,0.180541992,0.392662843,-0.481438016,3.086638231
0.375244141,-0.918823242,0.208496094,0.3848022,-0.534064356,3.014293667
0.297607422,-0.967651367,0.251220703,0.374276932,-0.575232809,2.860411584
0.275268555,-0.979492188,0.202270508,0.36441782,-0.533797894,2.778207909
0.208129883,-0.961181641,0.109619141,0.354025783,-0.425081201,2.56357238
0.173461914,-0.916015625,0.160522461,0.320051817,-0.390174616,2.441799026
0.057128906,-0.907714844,0.329101563,0.198411694,-0.382580435,2.161746959
0.038574219,-0.948608398,0.350952148,0.174829764,-0.446531431,2.015592288
-0.016357422,-0.956542969,0.15222168,0.260497452,-0.472511523,1.710492747
-0.025268555,-0.991333008,0.154174805,0.368681219,-0.430410451,1.510912348
0.049438477,-0.955200195,0.129760742,0.583583211,-0.367258843,1.056727049
0.05871582,-0.938110352,0.183959961,0.597972185,-0.337015351,0.826103771
0.128295898,-1.012817383,0.357666016,0.45248367,-0.161549807,0.4189491
0.128417969,-1.047607422,0.356567383,0.336306028,-0.044306316,0.240019544
0.073242188,-1.098266602,0.334350586,0.164171265,0.047356778,-0.146484285
0.065429688,-1.108520508,0.292236328,0.112744006,0.042027528,-0.354458252
0.024536133,-1.091308594,0.235595703,-0.009695504,0.024041311,-0.780132065
0.000610352,-1.098754883,0.224975586,-0.094430573,0.101048968,-1.015551668
-0.023681641,-1.114501953,0.240478516,-0.264566867,0.346194451,-1.50983957
0.005004883,-1.118896484,0.225952148,-0.305468858,0.453312368,-1.768174946
0.071166992,-1.106689453,0.198608398,-0.299606683,0.500342996,-2.339603737
0.082885742,-1.098876953,0.226074219,-0.271894585,0.396822322,-2.639374028
0.080322266,-1.01953125,0.268554688,-0.255773605,-0.066555933,-3.201609863
0.225952148,-0.877441406,0.295654297,-0.316926745,-0.226433421,-3.419442942
0.369628906,-0.914672852,0.228393555,-0.611501018,-0.074949501,-3.865634367
0.520751953,-0.987304688,0.238525391,-0.773776669,0.373506855,-4.065081534
0.460083008,-1.011108398,0.312988281,-0.906075291,1.082163824,-4.365651213
0.321044922,-0.976928711,0.243896484,-0.781504081,0.826626304,-4.365651213
0.345214844,-0.902099609,0.279541016,-0.678516332,0.420670714,-4.365651213
0.548461914,-0.653808594,0.234130859,-0.631485704,-0.135303253,-4.365651213
0.610107422,-0.681762695,0.146850586,-0.705695505,-0.043373697,-4.365651213
0.631103516,-0.711547852,0.286010742,-0.715288154,0.480624772,-4.365651213
0.701049805,-0.611938477,0.177734375,-0.484398414,0.629177606,-4.365651213
0.7890625,-0.553466797,0.178710938,-0.328118169,0.454777912,-4.365651213
0.970947266,-0.431518555,0.17980957,-0.153052319,-0.09093725,-4.365651213
1.025024414,-0.356811523,0.152709961,-0.148389225,-0.219638628,-4.365651213
0.997680664,-0.35559082,0.235473633,-0.157582181,0.081730438,-4.365651213
0.940917969,-0.268676758,0.201904297,-0.133733789,0.329274083,-4.365651213
0.890014648,-0.046142578,0.146972656,0.006558708,0.491416503,-4.365651213
0.919067383,0.014404297,0.179443359,0.117273868,0.351923394,-4.365651213
1.024658203,0.131469727,0.237670898,0.218529611,0.117169948,-4.365651213
1.037597656,0.177856445,0.220458984,0.284345844,-0.33261872,-4.365651213
1.02746582,0.306396484,0.196533203,0.187486732,-0.24028947,-4.365651213
1.045288086,0.384521484,0.205688477,0.107281525,-0.085341538,-4.365651213
1.016479492,0.394165039,0.209594727,0.041065599,0.170462444,-4.365651213
0.930786133,0.434570313,0.111816406,0.098621495,0.219758003,-4.365651213
0.899780273,0.496459961,0.112670898,0.305129918,0.192978524,-4.365651213
0.872436523,0.580688477,0.200195313,0.421440791,0.29996321,-4.135694091
0.829467773,0.636962891,0.219970703,0.438094696,0.405615584,-3.988873264
0.716796875,0.731323242,0.163452148,0.496316748,0.499010684,-3.771839573
0.683959961,0.719482422,0.098632813,0.577721036,0.47929246,-3.724675714
0.56628418,0.803466797,0.126220703,0.749456105,0.247603333,-3.642205576
0.583984375,0.885253906,0.184936523,0.772638341,-0.076947969,-3.452217827
0.584960938,0.875610352,0.215820313,0.735200362,-0.148892839,-3.310193325
0.614379883,0.877441406,0.161743164,0.636609244,-0.06735532,-2.982577704
0.442993164,0.875244141,0.084594727,0.592909397,0.089990775,-2.866000368
0.344360352,0.909545898,0.084350586,0.511904803,0.452912674,-2.808577704
0.277099609,0.966918945,0.128051758,0.475399443,0.566159229,-2.789792099
0.285522461,0.993896484,0.166015625,0.380005875,0.459707468,-2.605000368
0.242919922,0.994506836,0.142944336,0.320185048,0.315418034,-2.478697152
0.190185547,0.985839844,0.095947266,0.229987498,0.146614052,-2.26912441
0.143676758,0.953979492,0.080200195,0.191350438,0.140885109,-2.178260704
0.126708984,0.973754883,0.090209961,0.109013532,0.239742689,-1.999864073
0.073974609,0.955078125,0.111083984,0.067711847,0.251067345,-1.896343399
0.048950195,0.961425781,0.104125977,-0.004499485,0.170862138,-1.648799754
-0.054077148,0.974121094,0.084716797,-0.034876208,0.116503792,-1.37341078
-0.072875977,0.956298828,0.075073242,-0.046334095,0.125563516,-1.118006492
-0.056396484,0.96472168,0.055908203,-0.042870083,0.118369029,-0.970652739
-0.092895508,0.996826172,0.050170898,-0.031545427,0.069339933,-0.635043244
-0.121582031,1.005615234,0.060302734,-0.036741446,0.023641617,-0.448519508
-0.180786133,0.986083984,0.103515625,-0.063920619,-0.095200649,-0.003793626
-0.211303711,0.991577148,0.128173828,-0.074712349,-0.164480895,0.243483556
-0.211181641,0.965576172,0.147094727,-0.074978812,-0.378050573,0.788665793
-0.194458008,0.9453125,0.123901367,-0.04899872,-0.503954096,1.086437616
-0.144897461,0.918579102,0.065917969,-0.01142751,-0.639450267,1.401662731
-0.134155273,0.904052734,0.069213867,0.060250897,-0.96293572,2.110719393
-0.063476563,0.880737305,0.156005859,0.016551051,-1.063791769,2.822973606
-0.020141602,0.885864258,0.164428711,-0.039139608,-1.014895903,3.155652013
0.123779297,0.865600586,0.111083984,-0.089767479,-0.983320099,3.45595523
0.195800781,0.870727539,0.078735352,-0.184494892,-0.916571248,4.005933791
0.300170898,0.883300781,0.117553711,-0.315994126,-0.836765735,4.365658141
0.421508789,0.854003906,0.197753906,-0.413652625,-0.696073545,4.365658141
0.490112305,0.822387695,0.185791016,-0.512243743,-0.562575842,4.365658141
0.594238281,0.769775391,0.17199707,-0.480801171,-0.622663131,4.365658141
0.685302734,0.756225586,0.140869141,-0.322389226,-0.833434954,4.365658141
0.774169922,0.718994141,0.085571289,-0.235122763,-0.86847477,4.365658141
0.91003418,0.599365234,0.077758789,-0.172370849,-0.653572779,4.365658141
0.94140625,0.578369141,0.120239258,-0.217935933,-0.39483771,4.365658141
1.061035156,0.395629883,0.07434082,-0.284418322,0.104379749,4.365658141
1.118164063,0.28894043,0.103759766,-0.276957373,0.199506855,4.365658141
1.137451172,0.160888672,0.067382813,-0.17143823,0.185251112,4.365658141
1.122192383,0.151245117,0.066650391,-0.014092135,0.116237329,4.365658141
1.117553711,0.143920898,0.157836914,0.053855798,0.064143914,4.365658141
1.10925293,0.037475586,0.085693359,0.171365752,-0.054032196,4.365658141
1.118530273,-0.03125,0.023681641,0.2001437,-0.099197587,4.365658141
1.120605469,-0.145629883,0.006713867,0.173630683,0.0035237,4.365658141
1.093994141,-0.230102539,0.045043945,0.167235584,0.121300117,4.365658141
1.086181641,-0.299804688,0.125244141,0.17869347,0.121300117,4.365658141
1.034423828,-0.31640625,0.086791992,0.177227927,0.01644713,4.365658141
0.890625,-0.388305664,0.025268555,0.1152754,-0.179136331,4.365658141
0.837402344,-0.462280273,0.055419922,0.108613838,-0.169676913,4.365658141
0.801147461,-0.592285156,0.14440918,0.104883363,-0.094667724,4.365658141
0.791259766,-0.66809082,0.119506836,0.128864986,-0.0007397,4.365658141
0.737304688,-0.812133789,0.042602539,0.229721036,-0.258142457,4.365658141
0.685302734,-0.827880859,0.043212891,0.328711847,-0.503021477,4.312365644
0.526855469,-0.744384766,-0.016479492,0.439293777,-0.693009226,4.197387084
0.472045898,-0.741943359,0.036132813,0.670183517,-0.781608001,3.860445276
0.487670898,-0.8203125,0.018920898,0.747457637,-0.712860681,3.722417711
0.503540039,-0.880126953,0.081176758,0.770506641,-0.517410451,3.581059365
0.456787109,-0.933227539,0.142578125,0.777701128,-0.457722855,3.48926304
0.305419922,-0.840942383,0.045898438,0.735733287,-0.520608001,3.459419242
0.219848633,-0.832641602,0.130249023,0.743727162,-0.74283771,3.37108693
0.151977539,-0.905639648,0.182983398,0.811275401,-0.976658537,3.25517575
0.165039063,-0.932495117,0.186157227,0.823399444,-0.957340007,3.230261508
0.136108398,-0.932373047,0.141235352,0.800750133,-0.730180742,3.143527971
0.087402344,-0.971313477,0.147216797,0.769574022,-0.673424234,3.057194127
-0.060180664,-0.925048828,0.224487305,0.69416514,-0.819578905,2.783004233
-0.033813477,-0.938720703,0.215087891,0.669117667,-0.929494678,2.625924601
-0.060546875,-0.945800781,0.259521484,0.591710316,-0.893655474,2.278324294
-0.081054688,-0.944458008,0.194458008,0.572391786,-0.681018414,2.072215565
-0.15234375,-0.942260742,0.330444336,0.521897146,-0.388709073,1.51863976
-0.128417969,-0.983642578,0.31652832,0.466073256,-0.344343069,1.213273757
-0.05859375,-1.091552734,0.287109375,0.306728693,-0.301575841,0.637048641
-0.112060547,-1.091796875,0.306884766,0.192949213,-0.209246591,0.398964414
-0.042358398,-1.143066406,0.262695313,-0.071514799,0.150344527,-0.118772187
-0.070922852,-1.172851563,0.276733398,-0.157715412,0.293168417,-0.387366368
-0.148803711,-1.115112305,0.201660156,-0.262435167,0.408013746,-0.953865603
-0.148681641,-1.080322266,0.197998047,-0.282952778,0.440788632,-1.2574996
-0.149536133,-1.006958008,0.244506836,-0.306934402,0.499943302,-1.871029463
-0.133422852,-0.998901367,0.171142578,-0.332914494,0.51686367,-2.143087657
-0.101806641,-1.060302734,0.218139648,-0.353698567,0.472764129,-2.563565452
-0.055786133,-1.192260742,0.244995117,-0.456819547,0.413342996,-2.886651211
0.039550781,-1.059204102,0.284912109,-0.624291217,0.380035186,-3.320718593
0.042236328,-0.9453125,0.214111328,-0.731275903,0.466235798,-3.533488884
0.111450195,-0.902099609,0.226318359,-0.891952779,0.705119413,-3.900807414
0.17590332,-0.971679688,0.253295898,-0.899014035,0.822629367,-4.047228548
0.285522461,-0.974731445,0.287719727,-0.754058445,0.991033655,-4.306363311
0.328125,-0.897216797,0.256713867,-0.692105918,1.038863671,-4.365651213
0.501220703,-0.808105469,-0.033325195,-0.930190145,1.212996902,-4.365651213
0.563720703,-0.889770508,-0.051025391,-1.011994127,1.299863671,-4.365651213
0.531982422,-0.952392578,0.225219727,-0.915268246,1.10321436,-4.365651213
0.61328125,-0.790771484,0.19543457,-0.707960436,0.662352185,-4.365651213
0.635009766,-0.707275391,0.140014648,-0.611634249,0.450914206,-4.365651213
0.686279297,-0.69128418,0.046142578,-0.532494892,0.235612521,-4.365651213
0.870727539,-0.690917969,0.074829102,-0.553278966,0.273583425,-4.365651213
0.919677734,-0.69543457,0.164672852,-0.557808828,0.492349122,-4.365651213
0.962280273,-0.493774414,0.216796875,-0.511577587,0.612257238,-4.365651213
0.942260742,-0.42199707,0.208740234,-0.316793513,0.693128601,-4.365651213
0.90222168,-0.248535156,0.11706543,-0.199683253,0.584145446,-4.365651213
0.921264648,-0.150634766,0.09777832,-0.073113574,0.261192919,-4.365651213
1.030151367,-0.081665039,0.112548828,0.00682517,0.163134726,-4.365651213
1.049316406,-0.041015625,0.115356445,0.050791479,0.250134726,-4.365651213
0.994995117,0.02722168,0.096679688,0.186820576,0.609459382,-4.365651213
0.971801758,0.053955078,0.141113281,0.272754726,0.81117148,-4.365651213
0.923828125,0.212524414,0.278808594,0.343100821,0.835153104,-4.365651213
0.944458008,0.266845703,0.304321289,0.328578616,0.663817728,-4.365651213
0.928466797,0.445556641,0.293212891,0.284079382,0.325810071,-4.365651213
0.93737793,0.480712891,0.271118164,0.320318279,0.256529826,-4.365651213
0.847412109,0.471801758,0.178588867,0.494051817,0.443986181,-4.365651213
0.797241211,0.48449707,0.176513672,0.598105416,0.592805477,-4.365651213
0.769287109,0.655639648,0.202270508,0.663921649,0.55550073,-4.365651213
0.802734375,0.736450195,0.228515625,0.633278463,0.404549734,-4.365651213
0.729003906,0.85546875,0.169677734,0.552540332,0.334470102,-4.345533295
0.579711914,0.880004883,0.120849609,0.549209551,0.523924926,-4.250672652
0.341552734,0.879150391,0.052734375,0.667119198,0.944535952,-4.296504199
0.367919922,0.937011719,0.071899414,0.749189643,1.057649276,-4.279050906
0.374511719,0.994873047,0.173461914,0.791157483,0.928414972,-3.933715531
0.35168457,1.001586914,0.195068359,0.746125324,0.690996901,-3.676845699
0.26965332,0.9453125,0.181518555,0.682574022,0.355920331,-3.248107566
0.068115234,0.944824219,0.235717773,0.559068662,0.271851418,-2.942874794
0.020019531,0.946777344,0.258789063,0.474733287,0.214295522,-2.759282145
0.001708984,0.997436523,0.164550781,0.341368815,-0.064291002,-2.326680306
-0.021972656,1.000610352,0.109985352,0.302332062,-0.184065887,-2.115908484
-0.073486328,0.98425293,0.061401367,0.216531143,-0.231496209,-1.783230076
-0.105957031,0.986328125,0.052246094,0.163904803,-0.135969409,-1.621087656
-0.098876953,1.00402832,0.10168457,0.065979841,0.120767192,-1.174230075
-0.104125977,0.999633789,0.112182617,0.043996686,0.155407314,-0.905635894
-0.193237305,0.974731445,0.068481445,0.072907865,-0.051367571,-0.422006491
-0.212158203,0.959106445,0.070800781,0.080768509,-0.238291002,-0.206838037
-0.217041016,0.979858398,0.11340332,0.050258554,-0.504886714,0.236022607
-0.199707031,0.981933594,0.121948242,0.014552582,-0.516744295,0.487429958
-0.205444336,0.975463867,0.158325195,-0.080840986,-0.445199119,0.992642822
-0.208129883,0.929931641,0.176757813,-0.120010971,-0.591620252,1.502119086
-0.191772461,0.909912109,0.15612793,-0.099226898,-0.772148583,1.761387081
-0.039550781,0.869506836,0.124145508,0.049992092,-1.185165429,2.651771461
0.034301758,0.869262695,0.116699219,0.065979841,-1.164248124,2.970327358
0.137207031,0.965332031,0.192993164,0.00895687,-0.852087327,3.532429962
0.149291992,0.975097656,0.188964844,-0.025550021,-0.732312442,3.773045582
0.183837891,0.920654297,0.163574219,-0.028880802,-0.807588093,4.196587696
0.252319336,0.846069336,0.146606445,0.008557176,-0.937088859,4.365658141
0.406860352,0.743774414,0.095336914,0.107547988,-1.075649349,4.365658141
0.497436523,0.689575195,0.091918945,0.141921648,-1.027153178,4.365658141
0.692260742,0.738525391,0.12109375,0.206805262,-0.768284877,4.365658141
0.754516602,0.705810547,0.058349609,0.220394849,-0.592019946,4.365658141
0.832641602,0.707397461,-0.002563477,0.169500515,-0.341545213,4.365658141
0.905029297,0.652954102,-0.042724609,0.125400974,-0.204183804,4.365658141
0.989257813,0.587036133,0.070922852,0.099287651,-0.061759608,4.365658141
1.022216797,0.560546875,0.03894043,0.074106947,0.207234267,4.365658141
1.073486328,0.479614258,-0.001953125,0.040932368,0.345528294,4.365658141
1.122314453,0.380004883,0.014892578,-0.005432104,0.502341465,4.365658141
1.149780273,0.192504883,0.03918457,0.054521954,0.394024466,4.365658141
1.099731445,0.181030273,0.045043945,0.131929305,0.312753409,4.365658141
0.977905273,0.219238281,0.14453125,0.256100821,0.197108692,4.365658141
1.028076172,0.266723633,0.095458984,0.479662843,-0.164480895,4.365658141
1.130493164,-0.105102539,-0.026245117,0.659924711,-0.126243529,4.365658141
1.139526367,-0.1484375,0.119018555,0.640606182,0.075601801,4.365658141
1.127075195,-0.111938477,0.097045898,0.540283057,0.538047437,4.365658141
0.954345703,-0.120727539,0.099365234,0.497782292,0.599866733,4.365658141
0.838134766,-0.188110352,0.208374023,0.598371878,0.104379749,4.365658141
0.842285156,-0.608032227,0.086547852,0.753985967,-0.168877525,4.365658141
0.932861328,-0.646728516,0.044555664,0.918393318,-0.360863743,4.365658141
0.881591797,-0.658203125,0.113647461,1.031240179,-0.598148583,4.365658141
0.807739258,-0.572265625,0.097412109,1.068811389,-0.791866807,4.365658141
0.690063477,-0.638427734,0.213134766,1.143687346,-1.084842305,4.36019566
0.707885742,-0.849853516,0.164306641,1.1827241,-1.076315505,4.237489687
0.775024414,-0.951904297,0.002929688,1.224825172,-0.809186868,4.099728584
0.684936523,-0.934692383,0.053344727,1.246808326,-0.833701416,4.096131341
0.569946289,-0.876342773,0.097045898,1.308494391,-0.992779517,4.072549411
0.425292969,-0.782836914,0.180908203,1.366050287,-1.197822397,4.01446059
0.411743164,-0.80480957,0.218505859,1.370580149,-1.501589625,3.699901631
0.544921875,-0.951782227,0.073242188,1.328612308,-1.301609533,3.552014954
0.534057617,-0.946411133,0.065795898,1.085731756,-0.745369104,3.391338078
0.3125,-0.879760742,0.098632813,0.865367284,-0.592286408,3.195621386
0.14855957,-0.903076172,0.302246094,0.747057943,-0.639983192,3.086771462
0.137207031,-0.915649414,0.329467773,0.567595462,-0.767885183,2.781405459
0.152954102,-0.892578125,0.210327148,0.514036503,-0.631856087,2.616465183
0.060302734,-0.827392578,0.164550781,0.348962996,-0.117183804,2.280722456
-0.003417969,-0.889038086,0.245849609,0.273287651,0.068407314,2.089535626
-0.020141602,-0.935668945,0.295532227,0.13672563,-0.001539087,1.760321231
-0.045532227,-0.960571289,0.272827148,0.07983589,-0.271199118,1.451224752
-0.048828125,-0.926513672,0.230102539,0.085564833,-0.257076607,1.287483558
-0.030029297,-0.977661133,0.198364258,0.070909397,0.007920331,0.969593818
-0.024169922,-1.026123047,0.194580078,0.050924711,0.147813133,0.841158902
-0.106933594,-1.047363281,0.249389648,0.025211081,0.128494604,0.582956757
-0.126098633,-1.045043945,0.298950195,0.024012,-0.003670787,0.449858748
-0.072143555,-1.061523438,0.362792969,0.034537268,-0.189395137,0.088668855
-0.01965332,-1.053100586,0.279663086,0.014952276,-0.137967878,-0.130762999
0.033935547,-1.039794922,0.12878418,-0.145058444,0.307957085,-0.576155036
0.010620117,-1.083251953,0.196655273,-0.204079884,0.581880515,-0.79785182
-0.0625,-1.087280273,0.267822266,-0.271228429,0.756013747,-1.265493475
-0.043457031,-1.075561523,0.254516602,-0.327318781,0.581081128,-1.768841102
-0.012451172,-1.085693359,0.247070313,-0.330249869,0.519528295,-2.028775252
0.044189453,-1.121337891,0.223144531,-0.371418322,0.596402721,-2.522263768
0.105224609,-1.100219727,0.210449219,-0.422445887,0.754148509,-3.045462849
0.100585938,-1.056518555,0.178344727,-0.460017097,0.819964742,-3.318187199
0.065429688,-0.964355469,0.278930664,-0.52050408,0.803710531,-3.963559329
0.067382813,-0.911865234,0.208618164,-0.641078353,0.837551266,-4.264795164
0.28894043,-0.962036133,0.003173828,-0.97575523,1.28147776,-4.365651213
0.306884766,-1.031738281,0.177124023,-1.044902243,1.464137791,-4.365651213
0.381469727,-0.955200195,0.297973633,-0.960033943,1.582047439,-4.365651213
0.432617188,-0.840942383,0.250854492,-0.905675597,1.540878985,-4.365651213
0.588500977,-0.671020508,0.015014648,-1.021586776,1.398454789,-4.365651213
0.694213867,-0.69140625,-0.041748047,-1.099127358,1.353022936,-4.365651213
0.740722656,-0.88671875,0.21875,-1.029447419,1.019944834,-4.365651213
0.796630859,-0.728515625,0.213623047,-0.904210053,0.77679782,-4.365651213
0.793212891,-0.60949707,0.140136719,-0.755257526,0.375771786,-4.365651213
0.79675293,-0.446533203,0.099853516,-0.716753698,0.536448662,-4.365651213
0.921386719,-0.339111328,0.221679688,-0.642410665,0.779462445,-4.365651213
0.960449219,-0.224975586,0.256347656,-0.449891523,1.0645773,-4.365651213
0.952026367,-0.182250977,0.28125,-0.338110512,1.009419566,-4.365651213
0.907348633,-0.145751953,0.213012695,-0.140528582,0.749618647,-4.365651213
0.958374023,0.000610352,0.243652344,0.184822107,0.456376687,-4.365651213
0.916748047,0.138061523,0.267333984,0.310325936,0.241075002,-4.365651213
0.926269531,0.171875,0.338989258,0.391730224,-0.184332349,-4.365651213
0.982421875,0.242919922,0.36340332,0.34936269,-0.274396668,-4.365651213
1.013671875,0.292114258,0.303588867,0.27528612,-0.078280282,-4.34713207
1.000244141,0.425170898,0.227783203,0.275952276,0.141284803,-4.224825791
0.923583984,0.459472656,0.208862305,0.306995155,0.416274083,-4.095458257
0.848022461,0.520507813,0.227539063,0.342834359,0.355520638,-4.03670328
0.849487305,0.590454102,0.245361328,0.380805262,0.182053562,-3.773305117
0.869262695,0.644042969,0.268920898,0.362419351,0.20110563,-3.590645086
0.847900391,0.668457031,0.250488281,0.364817514,0.349924925,-3.294338807
0.693359375,0.692016602,0.14831543,0.419708785,0.401485416,-3.199877857
0.590820313,0.721313477,0.108520508,0.605299903,0.442387406,-3.114609863
0.454345703,0.838989258,0.139892578,0.682707254,0.462372093,-3.080502666
0.46484375,0.862915039,0.153686523,0.771306029,0.287705936,-2.922223952
0.503417969,0.918701172,0.227294922,0.791290715,0.133024466,-2.82110144
0.496948242,0.909057617,0.212768555,0.766642935,-0.087473237,-2.628715529
0.450073242,0.901855469,0.19128418,0.744526549,-0.045505397,-2.54078291
0.404907227,0.925415039,0.172485352,0.679642935,0.309289397,-2.382237734
0.313842773,0.991333008,0.176757813,0.550541863,0.396955553,-2.197179541
0.325683594,0.989379883,0.161132813,0.516701128,0.204436411,-2.088063154
0.359619141,1.010009766,0.113891602,0.479662843,-0.195390542,-1.81054248
0.363647461,1.028686523,0.111816406,0.440226396,-0.224701415,-1.639207105
0.271850586,1.023193359,0.129394531,0.312724098,0.006321556,-1.414978927
0.223999023,1.026123047,0.115112305,0.240246304,0.172860607,-1.365150443
0.190429688,1.004150391,0.019165039,0.099820576,0.333670714,-1.332242326
0.211425781,0.996704102,0.038452148,0.067578616,0.329407314,-1.288942173
0.196533203,1.044067383,0.140258789,0.03147295,0.220157697,-1.132262234
0.162719727,1.066894531,0.10144043,-0.063121231,0.170462444,-0.961193321
0.083984375,1.042358398,0.112670898,-0.139063038,0.131425691,-0.843150442
0.028320313,0.996826172,0.126953125,-0.133467326,0.097984649,-0.787726246
0.024780273,0.994506836,0.141967773,-0.141194738,0.122499198,-0.768407716
0.053466797,0.989013672,0.181518555,-0.210341752,0.151943302,-0.731102969
0.069458008,1.000854492,0.149902344,-0.258971155,0.141551265,-0.715248451
0.095092773,0.975830078,0.114135742,-0.266032411,0.121300117,-0.640239263
0.107666016,0.965698242,0.109863281,-0.234723069,0.097718187,-0.587746154
0.104248047,0.948730469,0.102294922,-0.150920619,0.041361372,-0.463974331
0.098144531,0.948974609,0.096313477,-0.115081415,0.033900423,-0.414545541
0.086181641,0.937011719,0.120239258,-0.052729195,0.133557391,-0.350061621
0.064453125,0.947509766,0.138671875,-0.005965029,0.190580362,-0.316087654
0.01953125,0.965454102,0.161010742,0.073174328,0.104246518,-0.245741559
-0.004882813,0.962402344,0.158203125,0.1131437,-0.001405856,-0.200975862
-0.006225586,0.986328125,0.144042969,0.186953807,-0.230830052,-0.147550135
0.004882813,1.013793945,0.152099609,0.22159393,-0.32395869,-0.15994064
0.033325195,0.999267578,0.137451172,0.211468356,-0.279859149,-0.172064683
0.029541016,0.993530273,0.146118164,0.172298371,-0.093868337,-0.193781375
0.038452148,0.993286133,0.142089844,0.125267743,-0.008600343,-0.229487348
0.047241211,0.996582031,0.138061523,0.095823639,-0.010865274,-0.241211697
0.051513672,0.966186523,0.151977539,0.054655185,-0.076281813,-0.210701743
0.050537109,0.96484375,0.149780273,0.03147295,-0.114385948,-0.173530227
0.057006836,0.982910156,0.145996094,-0.002367786,-0.123845366,-0.090527164
0.0625,0.999511719,0.134033203,-0.024617403,-0.08027875,-0.065746153
0.056152344,1.020874023,0.131958008,-0.059657219,0.097718187,-0.051890104
0.040771484,1.01965332,0.131591797,-0.065519394,0.161269489,-0.057752279
0.014404297,1.017822266,0.147705078,-0.032344815,0.16779782,-0.063880916
0.005249023,1.030761719,0.153564453,0.000962995,0.132891234,-0.055087654
0.025268555,1.037353516,0.145751953,0.04013298,0.014048968,-0.04389623
0.030517578,1.038452148,0.147338867,0.049059473,-0.015128674,-0.050957486
0.045654297,1.020629883,0.137207031,0.04759393,-0.010865274,-0.062681835
0.042114258,1.004516602,0.134521484,0.0197486,0.062012214,-0.086396996
0.051269531,1.007202148,0.122070313,-0.040338689,0.159004558,-0.102384744
0.033813477,0.998046875,0.1171875,-0.079641905,0.183652337,-0.102784438
0.010742188,1.001831055,0.123657227,-0.12960362,0.133290928,-0.077603734
-0.012817383,1.005371094,0.127929688,-0.137997189,0.081197513,-0.046161161
-0.017700195,1.017456055,0.124389648,-0.135465795,0.050554328,0.031645884
-0.020019531,1.013671875,0.112060547,-0.13386702,0.078133195,0.070549406
-0.024047852,1.009643555,0.114990234,-0.140795045,0.124764129,0.124907752
-0.021972656,1.002685547,0.118530273,-0.143193207,0.120500729,0.133834245
0.009643555,0.981323242,0.130859375,-0.137997189,0.085594144,0.107187997
0.016723633,0.982543945,0.133789063,-0.122142671,0.077200576,0.088802086
0.007202148,0.994018555,0.13671875,-0.080707755,0.042560453,0.076278349
-0.008300781,1.025756836,0.14074707,-0.072180956,-0.024987786,0.075478962
-0.003417969,1.031005859,0.134033203,-0.088435167,-0.148493146,0.064953694
0.006225586,1.038208008,0.1328125,-0.110151859,-0.118116423,0.047766864
0.03125,1.037109375,0.145507813,-0.132268245,0.05721589,0.012060891
0.022705078,1.033935547,0.142944336,-0.134266714,0.106378218,0.006998104
0.005249023,1.030639648,0.151733398,-0.130003314,0.015780974,0.01725691
0.000610352,1.025512695,0.149291992,-0.115214646,-0.121580435,0.02485109
0.015380859,1.028564453,0.145385742,-0.106954309,-0.122379823,0.017656603
0.043457031,1.011352539,0.1484375,-0.079375443,0.013649274,-0.004593014
0.048339844,1.004394531,0.15246582,-0.062588306,0.098117881,-0.015118282
0.033081055,0.977294922,0.170043945,-0.015424447,0.161269489,-0.029640487
0.022705078,0.97668457,0.178100586,0.00895687,0.124764129,-0.038433749
0.036987305,0.98425293,0.169311523,0.055454573,0.040695216,-0.067344928
0.042236328,0.977050781,0.164428711,0.077038034,0.070405783,-0.09972012
0.033691406,1.000244141,0.157592773,0.085831296,0.202704405,-0.109046306
0.006469727,1.02355957,0.157958984,0.08409929,0.247736564,-0.108646613
-0.006225586,1.034057617,0.167480469,0.087962996,0.211497666,-0.067211697
-0.022460938,1.01940918,0.176391602,0.088895614,0.134090316,-0.030839568
-0.019897461,1.009643555,0.16809082,0.081168202,-0.023655473,0.036175746
0.008911133,0.995483398,0.159912109,0.066246303,-0.061626377,0.050165026
0.020751953,0.993774414,0.169189453,0.025477544,-0.014329286,0.016590753
0.021606445,0.997070313,0.160522461,-0.009695504,0.087725844,-0.029640487
-0.001831055,1.013305664,0.166625977,-0.024217709,0.112506855,-0.047227011
0.000366211,1.010742188,0.167114258,-0.052862426,0.088791694,-0.065879384
0.006591797,1.018798828,0.160400391,-0.085903773,0.026439473,-0.088129002
0.010742188,1.0234375,0.154663086,-0.096961966,0.025373623,-0.092925326
0.002441406,1.002075195,0.156860352,-0.102024754,0.108110224,-0.068144316
-0.005493164,1.007324219,0.157226563,-0.098827204,0.160736564,-0.037900824
-0.000244141,0.991210938,0.159790039,-0.080308061,0.215627835,0.018722453
0.005249023,0.989379883,0.165039063,-0.064986469,0.201905017,0.035376358
-0.00793457,0.982788086,0.178222656,-0.00396656,0.105312368,0.056426894
-0.006591797,0.979614258,0.179199219,0.028142168,0.046024466,0.063088456
-0.00378418,0.982910156,0.168212891,0.080102352,-0.011931124,0.0602906
0.000244141,0.993408203,0.156005859,0.091160545,-0.000206775,0.047900095
-0.007446289,1.013671875,0.149291992,0.10128612,0.061745752,0.022852622
-0.00769043,1.010742188,0.158813477,0.105149826,0.080131663,0.014592285
-0.006591797,1.005859375,0.157958984,0.113943087,0.065742689,-0.001528695
0.006713867,0.990844727,0.157836914,0.111678156,0.048289397,-0.015917669
0.005859375,1.001464844,0.153198242,0.096889489,0.02071053,-0.049092248
0.005615234,1.007080078,0.159545898,0.090894083,-0.002205243,-0.054421498
0.001586914,1.019897461,0.159301758,0.083966058,-0.012730512,-0.04389623
0.006835938,1.014770508,0.149169922,0.088762383,-0.057229746,-0.014452126
0.01159668,0.985351563,0.145141602,0.08090174,-0.059094983,0.003667323
0.012817383,0.984863281,0.151611328,0.093025783,0.056682965,0.055227813
0.018432617,0.994384766,0.15246582,0.089028845,0.053751878,0.060423832
0.010864258,1.011962891,0.141601563,0.098621495,-0.057895902,0.068284475
0.016357422,1.047729492,0.134399414,0.108080913,-0.101196055,0.071482025
0.024291992,1.048828125,0.139770508,0.120871112,-0.022856086,0.07854328
0.020751953,1.0234375,0.13671875,0.12819883,0.053085721,0.079475899
0.007080078,1.033813477,0.140380859,0.136459167,0.114505323,0.082007293
-0.001953125,1.017822266,0.158935547,0.136059473,0.074935645,0.07747743
0.0078125,1.010009766,0.162231445,0.136592398,0.026439473,0.053629038
0.012573242,1.017822266,0.167114258,0.130730224,0.034833041,0.035909283
0.007202148,1.016845703,0.163818359,0.098621495,0.025773317,0.001668855
0.004638672,1.000244141,0.156005859,0.048526548,-0.021657005,-0.029240793
0.017700195,0.994995117,0.163208008,0.023745538,0.002591081,-0.041897761
0.036743164,0.992797852,0.16003418,-0.012360129,0.116770254,-0.071208634
0.040649414,0.998535156,0.156860352,-0.022885397,0.157006089,-0.077337271
0.021972656,0.999389648,0.154418945,-0.03181189,0.139686028,-0.049891636
0.011962891,1.01574707,0.148803711,-0.030346346,0.10771053,-0.02351185
0.020385742,1.006225586,0.14453125,-0.028347878,0.057482352,0.031112959
0.026245117,0.999633789,0.142211914,-0.027282028,0.051486946,0.044436083
0.019287109,1,0.131713867,-0.025683253,0.081463976,0.052296726
0.012573242,1.001098633,0.134399414,-0.025283559,0.0926554,0.052429957
0.006958008,1.005004883,0.129760742,-0.016490297,0.088525231,0.061756144
0.009155273,1.002563477,0.128295898,-0.007830266,0.084927988,0.065353388
0.003295898,1.00390625,0.132568359,0.022279994,0.067208233,0.076544812
-0.002441406,1.000610352,0.135375977,0.036002812,0.033234267,0.081607599
0.006469727,0.997436523,0.133789063,0.05945151,-0.01686068,0.08387253
0.020507813,0.995849609,0.12902832,0.067445384,0.003390469,0.078676512
0.017211914,0.999145508,0.127197266,0.085831296,0.059614052,0.060956757
0.010620117,1.01159668,0.136352539,0.091959933,0.062278677,0.052163495
0.015258789,1.0078125,0.139038086,0.082367283,0.034833041,0.043503464
0.024414063,1.002807617,0.136962891,0.067178922,0.022575767,0.025783709
0.023193359,1.014160156,0.13269043,0.064647528,0.018845293,0.011394735
0.025024414,1.026000977,0.129150391,0.060783822,0.014581893,-0.003260701
0.020996094,1.020507813,0.132568359,0.057053348,0.005122475,-0.007790564
0.024291992,1.018432617,0.129516602,0.043064067,-0.002338475,-0.010988113
0.027587891,1.020141602,0.12878418,0.033471418,0.007653868,-0.014452126
0.039306641,1.017089844,0.132568359,0.020148294,0.079465507,-0.013919201
0.033569336,1.023681641,0.134887695,0.016950744,0.098784037,-0.007124407
0.015380859,1.0234375,0.142578125,0.0176169,0.01644713,0.007930723
0.016967773,1.018920898,0.142089844,0.011887957,-0.021390542,0.012327354
0.039794922,1.008911133,0.134033203,-0.009695504,0.031768723,0.011794429
0.035644531,1.00769043,0.136108398,-0.019288153,0.099450193,0.00979596
0.028930664,1.007324219,0.137939453,-0.017689378,0.074935645,0.009662729
0.026977539,1.008178711,0.143066406,-0.011560741,0.007120943,0.008863342
0.036132813,1.010864258,0.131835938,-0.007297342,0.013782505,0.00873011
0.035400391,1.017700195,0.129150391,-0.001168704,0.052286334,0.006331948
0.02734375,1.012451172,0.135009766,0.002428539,0.052153103,0.002068548
0.027099609,1.004760742,0.136108398,0.000962995,0.045358309,-0.003793626
0.037475586,1.002807617,0.131835938,-0.004233023,0.080264894,-0.011920732
0.034667969,1.002441406,0.126831055,-0.008762885,0.091989244,-0.012986582
0.02722168,1.008056641,0.130493164,-0.002900711,0.046823853,-0.007257639
0.032104492,1.008911133,0.126342773,0.006425476,0.026572704,-0.007657332
0.040649414,1.020141602,0.128173828,0.003494389,0.087725844,-0.020980456
0.033203125,1.021240234,0.125732422,-0.005165642,0.088525231,-0.025910012
0.025146484,1.017822266,0.126586914,-0.017422916,0.073070407,-0.026576168
0.027709961,1.012329102,0.130737305,-0.019021691,0.086659994,-0.022046306
0.021606445,1.01184082,0.133178711,-0.010628123,0.075601801,-0.014452126
0.020019531,1.018554688,0.126464844,-0.001834861,0.039362904,-0.012053963
0.021484375,1.015625,0.135864258,-0.002634248,0.014581893,-0.0245777
0.030273438,1.010498047,0.138793945,-0.008762885,0.038430285,-0.032171881
0.025390625,1.010131836,0.137084961,-0.014358597,0.076667651,-0.045761467
0.027099609,1.007446289,0.139892578,-0.016623528,0.055350652,-0.045628236
0.02746582,1.005981445,0.131469727,-0.019021691,0.052819259,-0.040032524
0.026611328,1.004760742,0.136230469,-0.020886928,0.070405783,-0.028974331
0.026611328,1.002319336,0.134399414,-0.014358597,0.067341464,-0.025776781
0.017822266,1.003662109,0.135009766,-0.000502548,0.030969335,-0.015251513
0.034912109,1.001098633,0.132446289,-0.002101323,0.066009152,0.012860279
0.041137695,0.993896484,0.14855957,-0.011827204,0.107976992,0.034177277
0.034057617,0.995117188,0.154418945,-0.020753697,0.127162291,0.075478962
0.015136719,0.990112305,0.154907227,-0.018488766,0.089591081,0.089734705
0.007446289,0.991577148,0.153320313,-0.007830266,0.01324958,0.090134398
0.007568359,0.99597168,0.140380859,0.001229458,0.004722781,0.074546343
0.010498047,0.995239258,0.138671875,0.015351969,0.018978524,0.013393204
0.015136719,0.994262695,0.148193359,0.032938493,0.078532888,-0.047360242
0.009277344,0.999633789,0.142822266,0.041998218,0.072137789,-0.06428061
0.009643555,1.003295898,0.145141602,0.062515829,0.009119412,-0.065079997
0.013671875,1.003295898,0.143554688,0.073174328,-0.004869868,-0.061482754
0.038818359,1.012573242,0.129516602,0.089028845,0.050687559,-0.058151973
0.043945313,1.010864258,0.134521484,0.090894083,0.093321556,-0.052023335
0.041503906,1.008666992,0.139770508,0.084498983,0.084528294,-0.042563917
0.034179688,1.014648438,0.139282227,0.078636809,0.07546857,-0.032171881
0.029785156,1.016601563,0.139892578,0.056387192,0.081597207,-0.006058557
0.033691406,1.017700195,0.139648438,0.031073256,0.100249581,0.024717859
0.027709961,1.009521484,0.143432617,0.001362689,0.106777911,0.049365639
0.024780273,1.00793457,0.146118164,-0.009429041,0.102780974,0.05269642
0.013183594,1.002197266,0.14453125,-0.030079884,0.097185262,0.040705608
0.018920898,1.006835938,0.137084961,-0.041404539,0.111307774,0.030047109
0.025512695,1.008300781,0.133666992,-0.05219627,0.125163823,0.013393204
0.022705078,1.015136719,0.131713867,-0.049931339,0.11410563,0.007531029
0.020996094,1.010253906,0.126098633,-0.037407602,0.115704404,0.013926129
0.017944336,1.014770508,0.124267578,-0.02328509,0.113439473,0.020720922
0.022827148,1.007324219,0.134643555,0.001362689,0.060146977,0.024717859
0.027587891,1.003173828,0.130371094,0.010555645,0.046690622,0.018455991
0.037109375,1.005249023,0.128662109,0.022413225,0.091989244,-0.009389338
0.033081055,1.006591797,0.131713867,0.031739412,0.114905017,-0.022579231
0.021606445,1.016235352,0.131347656,0.046661311,0.0926554,-0.032571574
0.021240234,1.019897461,0.131591797,0.048793011,0.065609458,-0.033637424
0.030761719,1.012573242,0.130615234,0.049592398,0.081463976,-0.035502662
0.034179688,1.013061523,0.125976563,0.046128386,0.114638555,-0.031772187
0.016845703,1.008911133,0.146728516,0.039333593,0.102647743,-0.006991176
0.012939453,1.008544922,0.145263672,0.033071724,0.057349121,0.005932254
0.026245117,0.997558594,0.14831543,0.014152888,0.037630897,0.016723985
0.032104492,0.995117188,0.142456055,0.004427008,0.072803945,0.011394735
0.031860352,1.000244141,0.14453125,-0.003700098,0.092921862,-0.002328083
0.025024414,0.99987793,0.146484375,-0.003566867,0.051753409,-0.006724714
0.026733398,1.005615234,0.139892578,-0.001301936,-0.009932655,-0.022046306
0.034790039,1.010498047,0.131469727,-0.002501017,0.023108692,-0.037234668
0.028076172,1.016601563,0.125488281,-0.002501017,0.114372092,-0.064147378
0.021728516,1.013427734,0.135253906,0.00149592,0.108643149,-0.066279078
0.022216797,1.010620117,0.133789063,0.016284588,0.045624772,-0.051357179
0.032226563,1.006469727,0.133422852,0.02294615,0.038297054,-0.041897761
0.034667969,1.008300781,0.132202148,0.030140637,0.056682965,-0.023378619
0.030883789,1.007568359,0.13293457,0.030140637,0.063078064,-0.008723182
0.031616211,1.010009766,0.134887695,0.023345844,0.050554328,0.017123678
0.036621094,1.006103516,0.131591797,0.020414757,0.046957084,0.02378524
0.032958984,1.005126953,0.138549805,0.009489795,0.059081127,0.015791366
0.029174805,1.003540039,0.130981445,0.000696533,0.081996901,0.003933786
0.022705078,1.004882813,0.132324219,-0.001968092,0.084661525,0.003400861
0.015380859,1.009521484,0.131103516,0.005492858,0.060946365,0.013792897
0.008789063,1.009521484,0.134521484,0.0282754,0.038829979,0.019788303
0.010498047,1.002441406,0.131591797,0.040532674,0.030303179,0.017123678
0.022338867,1.00012207,0.134765625,0.05412226,0.039895829,-0.004459783
0.02734375,0.999267578,0.130126953,0.05731981,0.056549734,-0.018981988
0.031738281,1.002075195,0.126464844,0.063048754,0.067341464,-0.036968205
0.029541016,1.00769043,0.125610352,0.071575553,0.067607927,-0.063747685
0.028198242,1.01171875,0.125732422,0.068244772,0.062944833,-0.068410778
0.025024414,1.011474609,0.121948242,0.055854267,0.06041344,-0.049891636
0.021118164,1.008056641,0.131347656,0.036136043,0.043626303,-0.010321957
0.022460938,1.002197266,0.12890625,0.022812919,0.040428754,0.009929191
0.028442383,1.001953125,0.133544922,0.009356564,0.050287865,0.033777584
0.026367188,1.004150391,0.133422852,-0.019554616,0.054418034,0.071082331
0.030273438,0.997802734,0.136474609,-0.031278965,0.050687559,0.080541749
0.030395508,0.990356445,0.144165039,-0.034343283,0.055350652,0.085071611
0.024780273,0.992919922,0.141601563,-0.026882334,0.048422628,0.076145118
0.023803711,1.002197266,0.133300781,-0.011960435,0.023641617,0.044036389
0.026733398,1.017700195,0.12878418,-0.00609826,0.019111755,0.021520309
0.025878906,1.022583008,0.130004883,-0.004632717,0.060546671,-0.016184132
0.020507813,1.023803711,0.130493164,-0.002367786,0.090257237,-0.023378619
0.015869141,1.01965332,0.138427734,0.002295308,0.092255706,-0.014318894
0.01953125,1.015258789,0.146606445,-0.003433636,0.038829979,0.007264567
0.024291992,1.018066406,0.14453125,-0.014092135,0.025107161,0.01619106
0.039794922,1.012451172,0.12878418,-0.045401476,0.054151571,0.01832276
0.043334961,1.006958008,0.135131836,-0.061522456,0.080931051,0.01512521
0.031738281,1.006103516,0.135131836,-0.071648031,0.074669182,0.016723985
0.020629883,1.006835938,0.132568359,-0.049398414,0.010451724,0.028848028
0.021850586,1.007080078,0.124633789,-0.033410665,0.006987712,0.033244659
0.024780273,1.002685547,0.126586914,-0.005298873,0.050687559,0.031379421
0.026245117,0.999145508,0.130493164,0.007491326,0.066275614,0.027382484
0.030395508,0.993164063,0.130981445,0.028142168,0.055750346,0.015658135
0.036132813,1.00012207,0.135864258,0.034270806,0.046690622,0.006465179
0.035400391,0.999633789,0.137329102,0.026809856,0.067741158,-0.02351185
0.030883789,1.009521484,0.144165039,0.016551051,0.075735032,-0.044295923
0.027832031,1.010253906,0.147216797,0.013886426,0.060546671,-0.042164224
0.030883789,1.008178711,0.144287109,0.004959933,0.012450193,-0.02351185
0.049316406,1,0.142456055,-0.007430573,0.029503792,-0.007923795
0.054443359,1.002929688,0.138183594,-0.01036166,0.061745752,-0.005525632
0.048339844,1.003295898,0.138671875,-0.002634248,0.099050499,0.00553256
0.036132813,1.014404297,0.136108398,0.00362762,0.098384343,0.014325822
0.029541016,1.012817383,0.143920898,0.023479075,0.064143914,0.028448334
0.040405273,1.009521484,0.138427734,0.033737881,0.047356778,0.028315103
0.044433594,1.010986328,0.145263672,0.048126855,0.056416502,0.018056297
0.033203125,1.017578125,0.139892578,0.057053348,0.072803945,0.003134398
0.019897461,1.025390625,0.138671875,0.060250897,0.069872858,-0.003793626
0.023925781,1.01940918,0.137939453,0.067178922,0.047490009,-0.01924845
0.029174805,1.012939453,0.135864258,0.067445384,0.03150226,-0.029507256
0.031494141,1.005126953,0.132324219,0.058119198,0.022442536,-0.042963611
0.04309082,1.006225586,0.13293457,0.048793011,0.040695216,-0.048825786
0.036499023,1.004638672,0.137329102,0.030806793,0.073470101,-0.040032524
0.026367188,1.013916016,0.143188477,0.02294615,0.055217421,-0.029507256
0.029541016,1.009521484,0.141967773,0.006159014,-0.000606469,-0.001395464
0.040771484,1.002563477,0.139160156,-0.002900711,0.00458955,0.009929191
0.037475586,1.001220703,0.133178711,-0.016490297,0.047756472,0.011661198
0.030029297,1.008666992,0.138427734,-0.016223835,0.055883577,0.005799023
0.024536133,1.01171875,0.133544922,-0.017422916,0.031235798,-0.011121345
0.019165039,1.01550293,0.137084961,-0.017955841,0.022708998,-0.015251513
0.021484375,1.007080078,0.131591797,-0.019021691,0.028304711,-0.010188726
0.02331543,1.001464844,0.130981445,-0.01036166,0.03896321,-6.31516E-05
0.03125,0.997802734,0.131835938,-0.001168704,0.037097972,0.004999636
0.03527832,1.002075195,0.131103516,0.014286119,0.016180668,0.016590753
0.033935547,1.008544922,0.12512207,0.021080913,0.018712061,0.006465179
0.041381836,1.005249023,0.130004883,0.023612306,0.086127069,-0.023645081
0.027099609,1.018798828,0.139770508,0.054388723,0.010718187,-0.008723182
0.030273438,1.0078125,0.139892578,0.04652808,0.03683151,-0.000462845
0.0390625,1.001098633,0.145996094,0.0282754,0.022975461,0.004067017
0.032226563,1.008911133,0.143432617,0.018549519,0.023241923,0.005799023
0.03125,1.003173828,0.145874023,-0.004765948,0.049355247,0.004999636
0.029663086,0.998168945,0.140991211,-0.016090603,0.056816196,0.002734704
0.033569336,0.998657227,0.143188477,-0.027415259,0.067075002,-0.002994239
0.02734375,1.002319336,0.140991211,-0.026216178,0.063744221,-0.003926858
0.023925781,1.004272461,0.138427734,-0.023418322,0.050954022,-0.00312747
0.026245117,1.002075195,0.129882813,-0.019554616,0.048156165,-0.002727776
0.029418945,1.002807617,0.129638672,-0.017023222,0.068274083,-0.001129002
0.028564453,1.004394531,0.134033203,0.003094695,0.080264894,0.008063954
0.023925781,1.009521484,0.127319336,0.017750132,0.057615584,0.011261504
0.026855469,1.013549805,0.13293457,0.037335124,0.018045905,0.002068548
0.031860352,1.013183594,0.130615234,0.036535737,0.03043641,-0.007124407
0.032836914,1.012695313,0.129882813,0.033471418,0.078266426,-0.024977394
0.02722168,1.012939453,0.130615234,0.041065599,0.065076533,-0.024710931
0.025878906,1.013671875,0.125610352,0.047860392,0.022975461,-0.012187195
0.029418945,1.011962891,0.129882813,0.045062536,0.016980055,-0.011121345
0.040039063,1.008178711,0.134887695,0.034670499,0.056283271,-0.016583825
0.040405273,1.002441406,0.136474609,0.027609244,0.073603332,-0.017916138
0.034667969,1.005493164,0.139526367,0.018016594,0.063877452,-0.007524101
0.028930664,1.004638672,0.137329102,0.013486732,0.019511449,0.01192766
0.024169922,1.01159668,0.132446289,0.011355032,0.007653868,0.01832276
0.028686523,1.012207031,0.1328125,0.000296839,0.026572704,0.024717859
0.040405273,1.008056641,0.126831055,-0.009695504,0.045624772,0.023918472
0.041625977,1.008422852,0.1328125,-0.029946652,0.048289397,0.021920003
0.036376953,1.005493164,0.142700195,-0.038739914,0.02177638,0.027382484
0.029418945,1.010009766,0.134887695,-0.038606683,0.030702873,0.030846496
0.02722168,1.011230469,0.135253906,-0.035542365,0.043493072,0.028181871
0.035522461,1.006958008,0.13659668,-0.022352472,0.039229672,0.013259972
0.036499023,1.005249023,0.1328125,-0.016223835,0.037231204,0.003134398
0.038208008,1.010131836,0.133789063,-0.004632717,0.037764129,-0.018582294
0.035400391,1.006103516,0.131835938,0.004427008,0.035632429,-0.032171881
0.034179688,1.009277344,0.131347656,0.008290714,0.038696747,-0.035236199
0.033081055,1.012695313,0.133056641,0.02081445,0.045225078,-0.022179538
0.031738281,1.010620117,0.135009766,0.032938493,0.024840698,0.000736236
0.032348633,1.006713867,0.136962891,0.035736349,0.011251112,0.006864873
0.037231445,1.00793457,0.133544922,0.030007406,0.010984649,0.004999636
0.034057617,1.011474609,0.131958008,0.025211081,0.022442536,-0.000862539
0.029907227,1.008789063,0.135131836,0.018549519,0.030036717,-0.011387807
0.030639648,1.013671875,0.138549805,0.012687345,0.025373623,-0.017782907
