AccelX,AccelY,AccelZ,GyroX,GyroY,GyroZ
-0.017944336,1,0.151000977,0.054324772,-0.005963164,0.044419829
-0.010864258,1.01550293,0.135253906,0.040868417,0.017352303,0.022436674
-0.015136719,1.016113281,0.143676758,0.005562138,0.061984769,-0.026459191
-0.019042969,1.0234375,0.144287109,-0.016021323,0.035205289,-0.057502071
-0.015625,1.02722168,0.139526367,-0.02854506,0.02454679,-0.062031933
-0.012573242,1.027587891,0.141845703,-0.050528214,0.059586607,-0.052572515
-0.015258789,1.029296875,0.132324219,-0.05652362,0.074108812,-0.043379559
-0.012451172,1.032348633,0.131835938,-0.065983038,0.054790282,-0.020463786
-0.014648438,1.031005859,0.12890625,-0.078506775,0.054523819,-0.015400998
-0.006225586,1.029174805,0.12512207,-0.105286254,0.099422747,-0.012736374
-0.008911133,1.024658203,0.125854492,-0.11447921,0.10395261,-0.010338211
-0.017700195,1.013061523,0.134887695,-0.118076453,0.039735152,0.008180931
-0.029052734,1.009643555,0.131835938,-0.117010604,0.011756591,0.015775112
-0.024414063,1.016479492,0.126708984,-0.117143835,0.074242043,0.01670773
-0.023071289,1.019042969,0.130615234,-0.114878904,0.117142502,0.010312631
-0.032226563,1.007080078,0.133300781,-0.099024386,0.121006208,-0.004209574
-0.030273438,1.000610352,0.14440918,-0.078506775,0.080770374,-0.006341274
-0.024047852,1.003173828,0.13671875,-0.046131584,0.011756591,-0.021129942
-0.021728516,1.005126953,0.124755859,-0.038004478,0.021482472,-0.037250922
-0.023193359,1.004516602,0.132324219,-0.017486867,0.080237449,-0.072024276
-0.022827148,1.006958008,0.134643555,-0.007760986,0.070911262,-0.082016619
-0.027832031,1.002441406,0.139282227,0.015554481,0.011756591,-0.087345868
-0.027709961,1.000854492,0.13659668,0.023281893,-0.002898845,-0.084814475
-0.026123047,1.004272461,0.14050293,0.038337023,0.029076652,-0.067627645
-0.0234375,1,0.141235352,0.048995522,0.048261951,-0.05417129
-0.030029297,0.99230957,0.143554688,0.072843914,0.04706287,-0.022462254
-0.03515625,0.994384766,0.139892578,0.080837789,0.041866852,-0.009405593
-0.0390625,1.001098633,0.137573242,0.084701495,0.041067464,-0.000878793
-0.037597656,1.007080078,0.135375977,0.080704558,0.047995489,-0.006208043
-0.040527344,1.010131836,0.137329102,0.066848509,0.062251231,-0.025793035
-0.04284668,1.002807617,0.144287109,0.058987865,0.055856132,-0.035119222
-0.045898438,1.006713867,0.142089844,0.059121097,0.018951078,-0.042979865
-0.042480469,0.994506836,0.141479492,0.058055247,-0.009693639,-0.042180478
-0.038085938,0.996826172,0.134521484,0.04872906,-0.00343177,-0.034586297
-0.031494141,0.999023438,0.140258789,0.039669335,0.037869914,-0.027658273
-0.029907227,0.998046875,0.142089844,0.028611142,0.065582012,-0.008606205
-0.034790039,1.000976563,0.146362305,0.030609611,0.035471752,0.0037843
-0.036132813,0.999145508,0.137817383,0.024614205,-0.007295476,0.017906812
-0.029418945,0.99597168,0.135620117,0.005961832,0.030009271,0.017373887
-0.030273438,1.002441406,0.139892578,-0.002698199,0.031075121,0.01777358
-0.030151367,0.998413086,0.144042969,-0.004296974,0.015753528,0.018173274
-0.033203125,1.005859375,0.139892578,-0.008293911,0.003629485,0.019105893
-0.034301758,1.008300781,0.147705078,-0.011091767,0.006560573,0.020704668
-0.029174805,1.004638672,0.144165039,-0.017353636,0.010024585,0.022436674
-0.026489258,1.013305664,0.137695313,-0.017753329,0.015487066,0.02203698
-0.024780273,1.021850586,0.134765625,-0.027745672,0.027877571,0.008447394
-0.035644531,1.013671875,0.142456055,-0.036672165,0.02881019,-0.001012025
-0.038330078,1.009521484,0.138793945,-0.033341384,0.015353835,-0.014201917
-0.03515625,0.999633789,0.138427734,-0.026813054,0.003629485,-0.017133005
-0.032592773,0.997558594,0.143920898,-0.011757923,0.008825504,-0.013136067
-0.029907227,0.995117188,0.140625,-0.001232655,0.018684616,-0.009805286
-0.028808594,0.992919922,0.141601563,0.014088937,0.01375506,-0.002744031
-0.024902344,1.001342773,0.143920898,0.020750499,0.002163942,-0.005275424
-0.025024414,1.006835938,0.133178711,0.015687712,0.00416241,-0.011670524
-0.014038086,0.994140625,0.137329102,0.008892919,0.046396714,-0.026592423
-0.014160156,1.000488281,0.141601563,0.007827069,0.078105749,-0.026725654
-0.020996094,1.004638672,0.146972656,0.017552949,0.094626423,-0.010071749
-0.041992188,1.025878906,0.13684082,0.025680055,0.048261951,0.016441268
-0.041870117,1.023193359,0.141357422,0.023548355,0.031075121,0.025101299
-0.032348633,1.021850586,0.138305664,0.006361525,0.039868383,0.023635755
-0.022460938,1.017944336,0.136230469,-0.009892686,0.06318385,0.014442799
-0.00793457,0.997680664,0.135864258,-0.048130052,0.093560573,-0.001544949
0.004882813,0.999145508,0.136962891,-0.062652257,0.098490129,-0.010871136
-0.002075195,1.006835938,0.133666992,-0.073976913,0.102087372,-0.015933923
-0.006225586,1.001464844,0.141113281,-0.101156086,0.120473283,-0.008872668
-0.019897461,0.98046875,0.143920898,-0.109283192,0.161108812,0.002052294
-0.034423828,0.990600586,0.148071289,-0.106352104,0.276353835,0.045085985
-0.051757813,1.009399414,0.162231445,-0.071179057,0.236251232,0.087586751
-0.05090332,1.013305664,0.166748047,-0.047996821,0.168303299,0.099044637
-0.050170898,1.015625,0.155761719,-0.027345979,0.094892885,0.077461176
-0.048706055,1.029174805,0.143554688,-0.032142303,0.151915856,0.032029323
-0.055419922,1.037597656,0.140869141,-0.046398046,0.136860726,-0.002211106
-0.05859375,1.024047852,0.142333984,-0.046664508,0.085300236,-0.01233668
-0.048461914,1.003662109,0.145874023,-0.07157875,0.018951078,-0.030056435
-0.042236328,0.967041016,0.151489258,-0.084768643,0.060385994,-0.036851228
-0.036987305,0.961547852,0.153076172,-0.071312288,0.148851538,-0.023661335
-0.057128906,0.975097656,0.165039063,-0.048263283,0.128467158,-0.003676649
-0.063232422,0.98034668,0.157592773,-0.001499118,0.01482091,0.04775061
-0.043945313,0.974609375,0.159057617,0.021816349,-0.039670668,0.066802677
-0.021850586,0.970458984,0.154418945,0.03154223,-0.035673731,0.063072202
-0.015014648,0.973266602,0.162353516,0.044598891,-0.017687513,0.030697011
-0.010498047,0.992919922,0.151489258,0.042467191,-0.017421051,0.007248312
-0.011474609,1.01171875,0.150512695,0.037004711,-0.019685982,-0.035652147
-0.009521484,1.015869141,0.160522461,0.032341617,-0.034874343,-0.04884204
-0.005249023,1.022949219,0.162353516,0.020750499,-0.059388891,-0.063763939
-0.001342773,1.005981445,0.159301758,0.024747436,-0.041269443,-0.065895639
0.001953125,1.016601563,0.15612793,0.011690775,0.036404371,-0.054970677
0.00378418,1.027709961,0.154785156,-0.002564968,0.064382931,-0.044445409
0.001708984,1.028564453,0.162963867,-0.030543528,0.060519225,-0.014734842
0.004638672,1.024414063,0.17199707,-0.03720509,0.053457969,0.010445862
0.00012207,1.020507813,0.164550781,-0.048263283,0.075441124,0.013909874
-0.01550293,1.02746582,0.172119141,-0.060520558,0.137793345,0.015375418
-0.022460938,1.028198242,0.174316406,-0.065183651,0.139658582,0.017640349
-0.020629883,1.025146484,0.163085938,-0.074909531,0.134329332,0.01777358
-0.02355957,1.030151367,0.167480469,-0.082104018,0.171900542,0.014309568
-0.040771484,1.032348633,0.170410156,-0.074376607,0.158843881,0.02630038
-0.040039063,1.029907227,0.171630859,-0.056123927,0.006560573,0.062672509
-0.020385742,1.009277344,0.166137695,-0.046398046,-0.04206883,0.069067608
-0.010742188,0.999511719,0.165283203,-0.036272472,0.046396714,0.05321309
-0.010864258,0.996948242,0.173217773,-0.026813054,0.096758123,0.046018603
-0.018554688,0.996704102,0.175415039,0.000366119,0.043998551,0.041222279
-0.019897461,1.00793457,0.169067383,0.020217574,-0.022883531,0.022836368
-0.018798828,1.008300781,0.161499023,0.017020025,-0.006096395,0.000453519
-0.023803711,1.010986328,0.158325195,0.004096594,0.043732089,-0.036318303
-0.031494141,1.015380859,0.15625,-0.007494524,0.022548322,-0.04351279
-0.032470703,1.01171875,0.15637207,-0.014955473,-0.002499152,-0.046177415
-0.022216797,0.998901367,0.162841797,-0.023748735,-0.008894251,-0.05203959
-0.016357422,0.996948242,0.165283203,-0.028411829,-0.003298539,-0.050041121
0.001708984,0.988037109,0.172851563,-0.024814585,-0.011159182,-0.034186603
0.007202148,0.997680664,0.167724609,-0.026013666,-0.010626257,-0.021662867
0.016601563,0.977050781,0.182983398,-0.021883498,0.02774434,-0.006208043
0.009521484,0.983154297,0.18737793,-0.018153023,0.045597326,0.000187057
0.00012207,0.987548828,0.188232422,-0.024814585,0.037203758,0.015242187
-0.011962891,1.022949219,0.184814453,-0.031076453,0.02881019,0.018439737
-0.005371094,1.025024414,0.188476563,-0.067448582,0.017885228,0.00485015
0.011474609,1.03137207,0.189697266,-0.153249501,0.077039899,-0.049508196
0.002929688,1.086303711,0.193359375,-0.228924846,0.177496254,-0.087612331
-0.012084961,1.07434082,0.233276367,-0.410385795,0.307130252,-0.158757813
-0.047607422,1.037353516,0.313476563,-0.431169869,0.273955673,-0.166485225
-0.02355957,1.023925781,0.313110352,0.658928142,-0.83572733,-0.08428155
0.086425781,0.776000977,-0.136230469,2.290477914,-2.926258727,0.188043106
0.461547852,1.155639648,0.067260742,2.243980211,2.655330867,-0.530872668
0.094482422,1.05090332,0.367431641,1.54904606,3.579422752,-0.608812944
-0.319824219,1.144165039,0.782226563,1.323752032,-0.163042797,-0.05417129
-0.083129883,1.122802734,0.364379883,0.594710684,-1.204644636,0.156866996
0.050537109,1.124755859,0.363037109,0.047396747,-0.227926411,0.052946628
-0.034790039,1.085083008,0.430541992,-0.892149961,0.523231324,0.047217685
-0.079589844,1.087524414,0.381958008,-1.268661447,-0.322254129,0.253059951
-0.068115234,1.059204102,0.275390625,-1.432402642,-0.403258723,0.29369548
-0.031738281,1.026489258,0.188232422,-1.644640008,-0.104287819,0.23467404
-0.034057617,1.02331543,0.212524414,-1.636512903,-0.104021357,0.204830242
-0.009033203,0.993408203,0.155395508,-1.580822244,-0.171169902,0.195370824
-0.009643555,0.989135742,0.109741211,-1.366053484,-0.053793179,0.182980319
-0.033081055,1.002441406,0.099487305,-1.216035107,0.074242043,0.180848619
-0.043457031,0.974487305,0.130493164,-0.838058078,-0.024615538,0.184046169
0.006347656,0.951293945,0.107055664,-0.41518212,-0.257370515,0.146874653
0.054077148,0.923706055,0.067260742,-0.20894016,-0.146522123,0.105706199
0.037597656,0.963012695,0.053955078,0.142657084,0.202144034,0.037358573
-0.01574707,1.006225586,0.098266602,0.316657085,0.200278797,0.027499461
-0.013427734,1.007568359,0.116821289,0.579655554,0.02134924,-0.008739436
0.010253906,1.000732422,0.114746094,0.66625586,0.049727495,-0.044045715
0.008666992,1.001342773,0.130126953,0.752456473,0.185356898,-0.093074812
-0.011352539,1.029296875,0.143920898,0.774173165,0.190419685,-0.096272362
-0.017700195,1.042236328,0.139526367,0.720214512,0.13406287,-0.08854495
-0.002563477,1.033203125,0.16809082,0.676514666,0.128200695,-0.079751688
0.003173828,1.023803711,0.1953125,0.575791848,0.073309424,-0.04351279
0.002197266,1.134765625,0.181762695,0.492122629,0.040534539,-0.08001815
-0.064453125,1.129516602,0.012939453,0.392332429,-0.039404205,-0.20565521
0.029663086,1.092285156,0.118408203,0.410585109,-0.031010637,-0.157159038
0.064819336,1.031982422,0.077758789,0.458548356,0.090762717,0.038690885
0.041625977,0.997680664,0.077026367,0.468274236,0.122471752,0.121161023
0.025634766,0.9609375,0.235839844,0.365419719,0.221995489,0.230277409
-0.021484375,0.946411133,0.239990234,0.273490163,0.262631017,0.232808803
-0.064208984,0.952026367,0.24609375,0.117209917,0.136993957,0.18737695
-0.080688477,0.953979492,0.231323242,0.052859228,0.061318613,0.151804208
-0.080810547,0.97277832,0.192871094,-0.032408766,-0.015822276,0.114632692
-0.067749023,0.985839844,0.167480469,-0.036805397,-0.066583378,0.110635755
-0.074829102,0.989990234,0.091308594,-0.006828368,-0.095494558,0.101709262
-0.057495117,0.983398438,0.138916016,0.005428907,-0.02594785,0.060007884
-0.068603516,0.989746094,0.189453125,0.016353868,-0.063785522,0.028698542
-0.061889648,0.990478516,0.191772461,0.018885262,-0.233522123,-0.019930861
-0.018188477,1.001708984,0.156738281,0.008226763,-0.283084144,-0.042180478
0.000488281,1.021728516,0.12902832,-0.068514432,-0.24498001,-0.076687369
0.047363281,1.022949219,0.130981445,-0.109549654,-0.187690576,-0.069626113
0.067871094,1.014282227,0.135742188,-0.148453176,-0.148787054,-0.017399467
0.065185547,1.00769043,0.127563477,-0.163774769,-0.184093333,0.059874652
0.072509766,1.008789063,0.106079102,-0.180561905,-0.158379703,0.087719982
0.085693359,0.996704102,0.037475586,-0.072777832,-0.033542031,0.145275878
0.078491211,0.98059082,-0.024658203,0.165972552,0.038802533,0.192439737
0.029663086,1.003662109,0.115600586,0.265762751,0.113278796,0.14980574
0.006347656,1.022583008,0.157470703,0.254571327,0.06105215,0.10583943
-0.010131836,1.066040039,0.162963867,0.068713746,-0.009027482,-0.016200386
0.033569336,1.063110352,0.273681641,-0.185091767,-0.015689044,-0.075355057
0.015625,1.009521484,-0.036865234,-0.075708919,-0.220598692,-0.057901764
0.109741211,1.003173828,0.167602539,-0.051727296,-0.144523654,-0.06069962
0.109130859,0.998779297,0.160888672,-0.102355167,0.107683084,-0.012070217
0.026611328,0.996948242,0.140380859,-0.105286254,0.098756591,0.023768986
-0.020751953,0.994140625,0.138671875,-0.049462365,0.036004677,-0.014201917
-0.05847168,0.974487305,0.114013672,-0.02428166,0.022948015,-0.077087063
-0.051269531,0.98046875,0.153808594,0.013556012,-0.016221969,-0.190067155
0.049438477,1.016357422,0.170532227,0.024480974,-0.149319979,-0.116390279
0.080566406,1.060302734,0.10168457,-0.035606316,0.034405902,0.0037843
-0.011230469,1.048950195,0.032470703,-0.044266346,0.134196101,0.009246781
-0.035766602,1.041137695,0.042236328,0.024214512,0.032807127,-0.026858885
-0.020751953,1.044433594,0.128173828,0.042733654,-0.091364389,-0.037117691
0.010620117,1.054321289,0.127319336,0.005562138,-0.104953976,0.051081391
0.022094727,1.075073242,0.125488281,-0.012690542,-0.114546625,0.124625035
-0.030517578,1.057006836,0.121826172,-0.013889623,-0.152384297,0.244533152
-0.026123047,1.052978516,0.104736328,-0.034274003,-0.180762552,0.29156378
0.002319336,1.058105469,0.180297852,-0.144855933,-0.05605811,0.38069548
0.041381836,1.033203125,0.158447266,-0.232122395,0.025745871,0.455971131
0.021972656,0.990722656,0.192626953,-0.253172931,0.011356897,0.471559186
0.018188477,0.988647461,0.183105469,-0.269027449,-0.054725798,0.46876133
0.060791016,0.975830078,0.139038086,-0.280751798,-0.07431079,0.455438206
0.076904297,0.96105957,0.117431641,-0.282483804,0.002963329,0.424661789
0.062744141,0.942749023,0.140625,-0.230257158,0.063317081,0.39042136
0.052124023,0.963378906,0.162353516,-0.154581813,0.009758123,0.402945097
0.061279297,0.980957031,0.157836914,-0.123538934,-0.025281694,0.439716919
0.110717773,1.004516602,0.174682617,-0.105552717,-0.056191342,0.485148772
0.143310547,1.002807617,0.153564453,-0.121140772,-0.00662932,0.482217685
0.139892578,0.979980469,0.125854492,-0.127935565,0.130465627,0.44837695
0.122558594,0.961547852,0.150024414,-0.117543528,0.123137908,0.423995633
0.143310547,0.979980469,0.185180664,-0.089298505,0.05132627,0.398015541
0.146606445,0.991088867,0.204589844,-0.07797385,0.022148628,0.465030855
0.144775391,1.004760742,0.215576172,-0.064517495,-0.045133149,0.535643413
0.157470703,0.982543945,0.18359375,-0.069447051,-0.139061173,0.623309569
0.151123047,0.977539063,0.161254883,-0.084235718,-0.076042796,0.617180932
0.163208008,0.966430664,0.162719727,-0.107151492,0.084101155,0.571216154
0.178466797,0.982421875,0.213134766,-0.117543528,0.091162411,0.566419829
0.181518555,1.002685547,0.252075195,-0.154448582,0.035205289,0.584539278
0.198486328,0.991943359,0.221069336,-0.170436331,0.018284922,0.582807272
0.242431641,0.977172852,0.209228516,-0.190421017,0.031341584,0.573481085
0.249633789,0.971679688,0.217163086,-0.192019792,0.024147097,0.558559186
0.259277344,0.993164063,0.23425293,-0.211071859,0.054923513,0.505399921
0.284545898,1.005615234,0.256103516,-0.24331382,0.065582012,0.491810335
0.28918457,1.013916016,0.238891602,-0.246911063,0.047862257,0.49567404
0.266235352,0.993408203,0.209838867,-0.225727296,0.013355366,0.511395327
0.266479492,0.979248047,0.224975586,-0.212404172,-0.026214312,0.518456583
0.301513672,0.98449707,0.263916016,-0.204943222,0.018018459,0.531779707
0.280517578,0.995239258,0.181152344,-0.196949348,0.152981706,0.489545403
0.235961914,0.998046875,0.204956055,-0.177231124,0.166038368,0.452773581
0.232788086,0.987915039,0.208496094,-0.113946285,0.050393651,0.422929783
0.276123047,0.954101563,0.217651367,-0.024148429,-0.119076487,0.487147241
0.28894043,0.963500977,0.233764648,-0.01029238,-0.160111709,0.522586751
0.341308594,0.982788086,0.279296875,-0.044932502,-0.100290882,0.573081391
0.344604492,0.976806641,0.217651367,-0.088898812,-0.03673958,0.582274347
0.344116211,0.955322266,0.280151367,-0.172568031,0.061718306,0.598928252
0.329833984,0.942626953,0.26171875,-0.204410297,0.051193038,0.594131927
0.332275391,0.934692383,0.252319336,-0.225860527,0.001631017,0.556693949
0.361572266,0.912353516,0.270141602,-0.228924846,-0.033808493,0.537242188
0.36315918,0.917236328,0.267700195,-0.226260221,-0.093762551,0.5321794
0.408325195,0.890625,0.192504883,-0.23372117,-0.106819213,0.518323351
0.415893555,0.900024414,0.200195313,-0.230257158,0.005894417,0.50526669
0.405151367,0.926025391,0.291381836,-0.219198965,0.031741277,0.509396858
0.397949219,0.937988281,0.294677734,-0.192019792,-0.033941724,0.538174806
0.393554688,0.942138672,0.287719727,-0.180428674,-0.084436365,0.54390375
0.405517578,0.929443359,0.263916016,-0.1681714,-0.139860561,0.522053826
0.418457031,0.907226563,0.251953125,-0.166172931,-0.129202061,0.514726108
0.440795898,0.900024414,0.256713867,-0.173767112,-0.034208187,0.494874653
0.447265625,0.904663086,0.249633789,-0.185491461,0.025479409,0.48275061
0.450073242,0.900390625,0.268798828,-0.192685948,0.048928107,0.505399921
0.451049805,0.882568359,0.262207031,-0.182960068,-0.004231158,0.538041575
0.438842773,0.887817383,0.274414063,-0.152716576,-0.063119366,0.618646476
0.426513672,0.868041992,0.289428711,-0.132865121,-0.1182771,0.648357042
0.440185547,0.857299805,0.280639648,-0.100090236,-0.229125492,0.691923658
0.501831055,0.849609375,0.264038086,-0.119408766,-0.13226638,0.716438206
0.516113281,0.851928711,0.289916992,-0.146854401,-0.043667605,0.718436675
0.51940918,0.862670898,0.307495117,-0.179629287,-0.015555813,0.726164087
0.511962891,0.834106445,0.305908203,-0.168704325,-0.092030545,0.756141116
0.525756836,0.826782227,0.315307617,-0.162975382,-0.13013468,0.768931315
0.572387695,0.802978516,0.317016602,-0.153382732,-0.152917222,0.784386139
0.573730469,0.794677734,0.305541992,-0.11447921,-0.148520591,0.800773581
0.594116211,0.774291992,0.286987305,-0.088099424,-0.020218907,0.773194715
0.578369141,0.788818359,0.312988281,-0.076641538,0.02241509,0.752144179
0.575805664,0.778320313,0.304443359,-0.060653789,-0.054592567,0.714439738
0.63684082,0.774902344,0.330322266,-0.041868184,-0.12693713,0.723765924
0.653808594,0.775878906,0.314086914,-0.023482273,-0.134797774,0.73722228
0.642456055,0.777587891,0.302490234,-0.006428674,-0.014756426,0.694188589
0.654052734,0.778930664,0.294067383,0.002897513,0.011889822,0.655551529
0.65625,0.766967773,0.29309082,0.019684649,0.061318613,0.569217685
0.676147461,0.763183594,0.284667969,0.048196135,0.050926576,0.532845557
0.689331055,0.778930664,0.308227539,0.06485004,0.048528414,0.527383076
0.704101563,0.781738281,0.296142578,0.107750499,0.034539133,0.532845557
0.729125977,0.778198242,0.259399414,0.123072092,0.03307359,0.527649538
0.724365234,0.775878906,0.254272461,0.140658616,0.127401308,0.484615848
0.721069336,0.748901367,0.261352539,0.1819603,0.160842349,0.46982718
0.726318359,0.741210938,0.280761719,0.208073624,0.133263483,0.48594816
0.709838867,0.72277832,0.290405273,0.268560607,0.088764248,0.529914469
0.703125,0.726074219,0.288574219,0.288944987,0.074242043,0.533778175
0.731323242,0.704223633,0.301879883,0.317989397,0.073176193,0.530314163
0.737792969,0.699462891,0.322143555,0.321719872,0.102753528,0.525118145
0.731811523,0.701904297,0.316894531,0.315990928,0.15018385,0.47848721
0.768920898,0.709716797,0.279785156,0.296272705,0.14045797,0.429991039
0.767822266,0.6875,0.294677734,0.25603687,0.11048094,0.39361891
0.758666992,0.682983398,0.301025391,0.23885004,0.126868383,0.377764393
0.746582031,0.686645508,0.310180664,0.20021298,0.18668921,0.354582157
0.728759766,0.69152832,0.322021484,0.182226763,0.145787219,0.366173275
0.730102539,0.683105469,0.303833008,0.173699963,0.066514631,0.374833305
0.734008789,0.676391602,0.305908203,0.158111908,0.016286453,0.371236062
0.744506836,0.666381836,0.290649414,0.146654022,0.045863789,0.380029324
0.75,0.668579102,0.285522461,0.147186947,0.026278796,0.398015541
0.784790039,0.644165039,0.277954102,0.15185004,-0.011425645,0.452240656
0.762817383,0.636108398,0.268432617,0.150251265,-0.000500683,0.460634224
0.769897461,0.635009766,0.270874023,0.142523853,0.017485534,0.443580625
0.78918457,0.649658203,0.275146484,0.12933396,0.036404371,0.440782769
0.793579102,0.643920898,0.275024414,0.103087406,-0.039004512,0.459568374
0.806884766,0.625488281,0.278564453,0.095626456,-0.126004512,0.477554592
0.827026367,0.601074219,0.251342773,0.090430438,-0.122673731,0.49993744
0.827026367,0.608764648,0.236938477,0.082569795,-0.035007574,0.486081391
0.808227539,0.626831055,0.240722656,0.045797972,0.019217541,0.469427486
0.806884766,0.637084961,0.235351563,0.024480974,-0.040603286,0.469161024
0.814941406,0.626708984,0.236572266,-0.006828368,-0.196483838,0.512860871
0.835693359,0.603149414,0.249389648,-0.010958536,-0.245379703,0.545502524
0.846557617,0.584716797,0.219726563,-0.032009072,-0.162643103,0.550965005
0.835571289,0.576660156,0.251464844,-0.036672165,-0.087900377,0.554429018
0.83972168,0.583251953,0.252075195,-0.042401109,-0.048996855,0.58040911
0.842651367,0.544433594,0.231689453,-0.021350573,-0.113747238,0.623576031
0.848022461,0.531005859,0.244018555,-0.011091767,-0.167972352,0.636899156
0.872192383,0.541992188,0.220703125,-0.023748735,-0.149852904,0.632902218
0.863647461,0.536987305,0.209716797,-0.027345979,-0.127070362,0.621844025
0.89465332,0.508911133,0.192626953,-0.026280129,-0.089632383,0.570949691
0.884887695,0.507080078,0.179077148,-0.025747204,-0.059122429,0.554828711
0.87878418,0.510009766,0.220336914,-0.031342916,-0.075776334,0.52671692
0.895019531,0.463378906,0.228881836,-0.021350573,-0.016888126,0.492076797
0.860717773,0.462890625,0.23840332,-0.006428674,0.04919457,0.473690886
0.851318359,0.467651367,0.247436523,0.02834468,0.05892045,0.449176338
0.906005859,0.451904297,0.258789063,0.061785721,-0.074577253,0.481551529
0.916870117,0.452026367,0.244018555,0.072710683,-0.135064236,0.516191652
0.91394043,0.447387695,0.252197266,0.098557544,-0.181961633,0.596796552
0.923950195,0.448486328,0.258666992,0.099756625,-0.159179091,0.604657195
0.947631836,0.419677734,0.208007813,0.095359994,-0.094561939,0.626107425
0.966064453,0.437133789,0.19140625,0.078972551,-0.038205124,0.6255745
0.920532227,0.412109375,0.21105957,0.071644833,-0.031143868,0.627306506
0.952026367,0.408813477,0.239624023,0.070312521,-0.106819213,0.634101299
0.939208984,0.382202148,0.204101563,0.058987865,-0.04206883,0.64702473
0.938232422,0.392578125,0.1875,0.050461066,-0.000234221,0.635300381
0.947998047,0.381347656,0.186401367,0.018219106,0.003629485,0.561490273
0.963134766,0.381347656,0.189331055,-0.000966193,0.046396714,0.524718451
0.958862305,0.355834961,0.201538086,-0.031609378,0.166038368,0.470759798
0.95690918,0.345825195,0.203857422,-0.026280129,0.191085841,0.4473111
0.950073242,0.350952148,0.202758789,-0.016953942,0.134995489,0.443580625
0.989746094,0.346923828,0.220214844,-0.010692074,0.010690741,0.424128864
0.980224609,0.324707031,0.219848633,-0.010425611,-0.009960101,0.415335602
0.978515625,0.330444336,0.188842773,-0.006428674,0.055056744,0.399880778
0.980712891,0.329467773,0.198608398,-0.005762518,0.11367849,0.385092111
0.964477539,0.312988281,0.194824219,0.002631051,0.173099624,0.349652601
0.96496582,0.309814453,0.219238281,0.005695369,0.143255826,0.339527026
0.978881836,0.296875,0.253417969,0.018752031,0.052125657,0.343790426
0.986083984,0.30456543,0.240356445,0.02301543,0.018151691,0.348320288
0.969238281,0.281616211,0.231689453,0.027545293,-0.051794711,0.342324883
0.977050781,0.287475586,0.20690918,0.032741311,-0.028745706,0.347254438
0.995849609,0.283325195,0.231567383,0.02514713,0.018284922,0.339527026
1.014892578,0.288696289,0.244628906,0.020217574,0.025479409,0.333664852
1.012451172,0.278564453,0.208007813,0.000366119,0.036004677,0.318076797
1.004394531,0.257202148,0.225097656,-0.011624692,0.016019991,0.31301401
1.008178711,0.249633789,0.229125977,-0.020151492,-0.009293945,0.346588282
1.012207031,0.244506836,0.22277832,-0.024681354,0.044398245,0.360444331
0.980712891,0.246459961,0.239990234,-0.016554248,0.100222135,0.399747547
0.981811523,0.227172852,0.248168945,-0.006961599,0.025212946,0.445579094
1.009155273,0.215942383,0.270263672,-0.00496313,-0.023149994,0.484082923
1.026733398,0.211669922,0.231079102,-0.027212747,-0.078973884,0.540839431
1.025878906,0.159545898,0.214599609,-0.042001415,0.021216009,0.573614316
1.019165039,0.200927734,0.260131836,-0.045865121,0.065981706,0.584272815
1.021362305,0.189086914,0.215820313,-0.061719639,0.073842349,0.641029324
1.028076172,0.201293945,0.21472168,-0.076241844,0.054790282,0.675269753
1.038452148,0.178955078,0.254394531,-0.097958536,0.101287985,0.717504056
1.011108398,0.169921875,0.192626953,-0.111015198,0.129932702,0.730560718
1.014892578,0.145507813,0.185546875,-0.134463896,0.106617234,0.747747548
1.024902344,0.091308594,0.214233398,-0.135529746,0.118341584,0.749346323
1.024047852,0.08996582,0.206298828,-0.124338322,0.15444725,0.766133459
1.012573242,0.106933594,0.264892578,-0.114745672,0.098356898,0.781455052
1.024780273,0.084472656,0.243530273,-0.113146898,-0.097493026,0.813963474
1.020385742,0.069335938,0.21496582,-0.117277066,-0.019153057,0.85646424
1.038452148,0.074462891,0.260986328,-0.131399578,0.087032242,0.869654133
1.012329102,0.026245117,0.224975586,-0.134730359,0.248641737,0.907491805
0.994384766,0.005249023,0.224609375,-0.124071859,0.230921982,0.926543873
1.002441406,0.030761719,0.230102539,-0.095560374,0.049727495,0.941465772
0.985839844,0.010620117,0.229492188,-0.105685948,-0.064185216,0.928942035
1.028076172,-0.044189453,0.232788086,-0.116077985,0.002030711,0.896300381
1.008911133,-0.076660156,0.164794922,-0.11874261,0.143122594,0.895500994
1.022949219,-0.042236328,0.200561523,-0.097958536,0.318188445,0.866056889
0.985961914,-0.05871582,0.246948242,-0.078506775,0.245444187,0.845006353
0.982543945,-0.087768555,0.251708984,-0.040935565,0.033739746,0.795044638
1.024780273,-0.075805664,0.249389648,-0.020950879,0.04173362,0.739087517
1.00378418,-0.124389648,0.234375,-0.009492992,0.071044493,0.702981851
1.014038086,-0.129882813,0.271972656,0.017819412,0.044131783,0.647824117
1.033569336,-0.128662109,0.265991211,0.019418187,0.008292579,0.629171744
1.051513672,-0.139038086,0.246459961,-0.019885029,0.041067464,0.595197777
1.045410156,-0.146728516,0.239990234,-0.044133115,0.11687604,0.57721156
1.015380859,-0.165039063,0.287109375,-0.055857464,0.144055213,0.575746016
0.982910156,-0.180664063,0.274780273,-0.042134646,0.042266545,0.589202371
0.980712891,-0.181518555,0.25769043,-0.013223467,-0.157180622,0.618113551
0.984863281,-0.191650391,0.239501953,-0.00602898,-0.177964695,0.647957349
0.990478516,-0.204956055,0.260864258,-0.006828368,-0.07644249,0.678600534
0.994995117,-0.196289063,0.251342773,-0.003097893,0.001497786,0.692989508
0.97644043,-0.197387695,0.212646484,0.001565201,-0.010093332,0.734957349
0.98046875,-0.207885742,0.237060547,-0.002964662,-0.041535905,0.756674041
0.970581055,-0.233642578,0.231201172,-0.018153023,-0.141725798,0.794644944
0.980102539,-0.272338867,0.278076172,-0.022016729,-0.211538968,0.807168681
0.991577148,-0.28125,0.270507813,-0.007627755,-0.267229627,0.862592877
0.958129883,-0.301879883,0.210693359,-0.008027449,-0.207941725,0.909623505
0.969604492,-0.281982422,0.226196289,-0.009093299,-0.153849841,0.934404516
0.938476563,-0.307861328,0.227783203,-0.019618567,-0.202878937,0.943863934
0.975219727,-0.300048828,0.240356445,-0.017486867,-0.23538736,0.938667916
0.950195313,-0.350097656,0.204833984,-0.006295443,-0.236319979,0.92734326
0.940795898,-0.361816406,0.190429688,0.006095063,-0.112281694,0.872185526
0.945068359,-0.346191406,0.187255859,0.027412061,-0.062053516,0.821557655
0.923706055,-0.388305664,0.209106445,0.040868417,-0.055658417,0.801040044
0.919921875,-0.396362305,0.162353516,0.069379902,-0.129601755,0.745482617
0.921142578,-0.416259766,0.190185547,0.076174695,-0.150119366,0.715239125
0.915161133,-0.404907227,0.197631836,0.055657084,-0.183960101,0.69325597
0.903076172,-0.447021484,0.246337891,0.039935798,-0.122673731,0.694854745
0.8828125,-0.476928711,0.212036133,0.045797972,-0.132932536,0.686194715
0.904663086,-0.485595703,0.213745117,0.046064435,-0.165041265,0.670206966
0.910888672,-0.486572266,0.206298828,0.034606548,-0.194885063,0.661413704
0.900268555,-0.481201172,0.181640625,0.013023087,-0.201280163,0.649023198
0.88293457,-0.497192383,0.183105469,0.001831663,-0.134131617,0.637698543
0.880615234,-0.508056641,0.224609375,0.006627988,-0.112414925,0.635833306
0.880493164,-0.532714844,0.233886719,0.030876074,-0.121074956,0.630104362
0.860961914,-0.528198242,0.167602539,0.03913641,-0.173301602,0.62450865
0.896484375,-0.529541016,0.208740234,0.025680055,-0.210339887,0.615448926
0.862670898,-0.551147461,0.156860352,0.022082812,-0.203012169,0.60625597
0.892333984,-0.544189453,0.194580078,0.0079603,-0.182228095,0.613450457
0.845092773,-0.588989258,0.139160156,0.022882199,-0.175966227,0.605856276
0.872924805,-0.590698242,0.16784668,0.037137942,-0.206476181,0.601193183
0.863769531,-0.575805664,0.152587891,0.026479443,-0.221531311,0.583606659
0.848510742,-0.582275391,0.145996094,0.018618799,-0.164774803,0.566020136
0.841918945,-0.596191406,0.161254883,0.021016962,-0.11721125,0.551364699
0.811523438,-0.604125977,0.154541016,0.055790316,-0.045532842,0.532046169
0.79309082,-0.623657227,0.138183594,0.072977146,-0.062319979,0.525251376
0.796264648,-0.620483398,0.167114258,0.106018493,-0.104820744,0.545902218
0.817993164,-0.623535156,0.138305664,0.11108128,-0.123606349,0.543504056
0.805541992,-0.631225586,0.115722656,0.127601954,-0.037272505,0.535643413
0.798828125,-0.636352539,0.119506836,0.122672398,0.016286453,0.537908344
0.775512695,-0.640136719,0.182373047,0.127202261,0.002963329,0.569084454
0.801513672,-0.654541016,0.184936523,0.107350806,-0.111615538,0.619978788
0.754394531,-0.692993164,0.170654297,0.090430438,-0.126803899,0.63303545
0.784790039,-0.67199707,0.141723633,0.045265048,-0.10002442,0.646358574
0.793823242,-0.6484375,0.161865234,0.035272704,-0.072045859,0.657683229
0.750488281,-0.670410156,0.147583008,0.035672398,-0.046865155,0.670073734
0.738647461,-0.697387695,0.162719727,0.035805629,-0.079773271,0.687260564
0.756713867,-0.702514648,0.16784668,0.021150193,-0.091231158,0.69432182
0.705078125,-0.728759766,0.148925781,0.026612674,-0.07857419,0.706845557
0.729858398,-0.702880859,0.151000977,0.039536104,-0.077241878,0.720568375
0.698730469,-0.721557617,0.133544922,0.034473317,-0.082437896,0.724565312
0.692749023,-0.73449707,0.120605469,0.037404404,-0.085368983,0.720435143
0.713012695,-0.736328125,0.139160156,0.026612674,-0.084036671,0.702981851
0.691894531,-0.731933594,0.121948242,0.02834468,-0.085901908,0.697919064
0.661254883,-0.74621582,0.142822266,0.02727883,-0.09682687,0.700850151
0.637939453,-0.760864258,0.175170898,0.02941053,-0.154382766,0.699917532
0.644165039,-0.762084961,0.138916016,0.033274236,-0.181561939,0.708177869
0.647094727,-0.767333984,0.139770508,0.028211449,-0.201546625,0.713773581
0.642089844,-0.764648438,0.15625,0.029943455,-0.183293945,0.718303444
0.632568359,-0.769165039,0.156005859,0.015154787,-0.132532842,0.731360105
0.600219727,-0.80065918,0.143310547,0.012356931,-0.12587128,0.732292724
0.612060547,-0.801879883,0.135620117,0.001698432,-0.148520591,0.731493336
0.603027344,-0.821289063,0.135131836,-0.003231124,-0.170636977,0.726830243
0.610229492,-0.811401367,0.125732422,-0.033208153,-0.194885063,0.732692418
0.55480957,-0.803710938,0.156982422,-0.043733421,-0.205010637,0.739220748
0.5703125,-0.803588867,0.151733398,-0.054258689,-0.224329167,0.753742954
0.514160156,-0.831542969,0.147094727,-0.023615504,-0.178897314,0.771462709
0.507202148,-0.845703125,0.14050293,-0.003097893,-0.127203593,0.79198032
0.50769043,-0.847900391,0.167358398,0.021683118,-0.040470055,0.844739891
0.496337891,-0.861450195,0.170410156,0.038470254,-0.038071893,0.858862402
0.490234375,-0.853149414,0.127685547,0.054458003,-0.076842184,0.893236062
0.511230469,-0.885375977,0.142944336,0.053258922,-0.11081615,0.904027793
0.477050781,-0.903076172,0.105102539,0.045131816,-0.187424114,0.926144179
0.447753906,-0.884765625,0.086791992,0.036471786,-0.206742643,0.924678635
0.450439453,-0.884887695,0.139526367,0.04979491,-0.175966227,0.939866997
0.459228516,-0.868041992,0.121704102,0.052725997,-0.126803899,0.943997165
0.424194336,-0.887573242,0.129760742,0.039802567,-0.045532842,0.941199309
0.40222168,-0.904785156,0.127319336,0.048995522,-0.043001449,0.932272816
0.380371094,-0.9296875,0.098754883,0.060186946,-0.056324573,0.938801147
0.384399414,-0.910888672,0.079589844,0.060053715,-0.084569596,0.911089049
0.352294922,-0.932373047,0.111450195,0.076441158,-0.072445553,0.871119677
0.324584961,-0.946777344,0.115844727,0.090563669,-0.017554282,0.83288231
0.319458008,-0.951293945,0.132446289,0.095493225,-0.007828401,0.814629631
0.319702148,-0.966918945,0.117797852,0.098557544,-0.013424113,0.786251376
0.297485352,-0.999511719,0.130737305,0.101888325,-0.058456273,0.764268222
0.267456055,-0.96862793,0.120117188,0.101755094,-0.091630852,0.744150304
0.281494141,-0.943725586,0.114379883,0.075375308,-0.137995323,0.709776644
0.300292969,-0.965209961,0.13684082,0.057788784,-0.145456273,0.696719983
0.255493164,-0.99230957,0.114868164,0.033940392,-0.127736518,0.655551529
0.233764648,-0.980102539,0.108642578,0.039935798,-0.088832996,0.637432081
0.215942383,-0.957763672,0.127197266,0.073776533,0.057588138,0.603591345
0.231079102,-0.974243164,0.138305664,0.074042996,0.143788751,0.592533152
0.244506836,-1.014770508,0.13269043,0.038203792,0.221595795,0.617314163
0.198364258,-0.974121094,0.132324219,0.027545293,0.182559042,0.626906812
0.205444336,-0.947509766,0.134399414,0.02194958,0.010823972,0.61478277
0.182861328,-0.969238281,0.126098633,0.010092,-0.082038202,0.59120084
0.176147461,-0.980224609,0.100097656,0.01115785,-0.163975415,0.54177205
0.18359375,-0.986816406,0.108032227,0.018485568,-0.122274037,0.519522433
0.177124023,-0.971557617,0.127319336,0.026079749,0.038935764,0.459968068
0.166015625,-0.976806641,0.109375,0.016220637,0.119274202,0.397482616
0.134399414,-0.993408203,0.122802734,0.015820943,0.115543728,0.371635755
0.149658203,-0.978027344,0.143188477,-0.004296974,0.090496254,0.350185526
0.143066406,-0.972290039,0.159423828,-0.013090236,0.069179256,0.341392264
0.141723633,-0.981445313,0.131347656,-0.02961091,0.011889822,0.317543872
0.154907227,-0.99609375,0.128540039,-0.042667571,-0.009960101,0.305020135
0.125732422,-0.985595703,0.130249023,-0.060387326,-0.037938662,0.249462708
0.106079102,-0.992675781,0.133789063,-0.076241844,0.063850006,0.107571437
0.088012695,-1.007202148,0.123901367,-0.069580282,0.04493117,0.000853213
0.10546875,-0.990478516,0.112182617,-0.076774769,-0.058456273,-0.033653678
0.091674805,-0.999145508,0.126220703,-0.074909531,-0.059921816,-0.031521979
0.095092773,-0.994873047,0.12487793,-0.068381201,-0.033009106,-0.026592423
0.077514648,-0.975585938,0.126831055,-0.059587939,-0.016888126,-0.001811412
0.090576172,-0.978881836,0.109741211,-0.045198965,-0.056191342,-0.001145256
0.086914063,-0.994506836,0.137939453,-0.024814585,-0.069514466,0.039490273
0.093505859,-0.998046875,0.119140625,-0.019751798,-0.073644634,0.058142646
0.102905273,-0.977050781,0.08972168,-0.002964662,-0.020352138,0.008847087
0.068969727,-0.997436523,0.127197266,0.050461066,0.114344646,-0.002344337
0.089111328,-1.010864258,0.106079102,0.051660147,0.126868383,0.008180931
0.090576172,-1.010009766,0.114379883,0.028211449,0.079438061,0.038557654
0.099609375,-0.990722656,0.111816406,0.012090469,0.031075121,0.050015541
0.093261719,-0.991210938,0.101074219,-0.00602898,-0.061653822,0.044419829
0.083374023,-1.011108398,0.105834961,0.004629519,-0.035673731,0.023768986
0.101318359,-0.998046875,0.101196289,0.013822475,0.021082778,0.015508649
0.106445313,-0.980834961,0.088867188,0.028211449,0.142856132,-0.016866542
0.106445313,-0.979370117,0.084106445,0.043799504,0.251706055,-0.046577109
0.098510742,-1.006835938,0.114990234,0.041934267,0.296604984,-0.051639896
0.097290039,-1.013427734,0.13684082,0.008493225,0.272223667,-0.029123816
0.088745117,-0.98815918,0.116088867,-0.020551185,0.131265014,-0.007273893
0.095581055,-0.987915039,0.105712891,-0.040935565,0.023880634,0.001119675
0.092895508,-0.973144531,0.097167969,-0.04466604,0.017352303,-0.015933923
0.090576172,-0.993041992,0.095214844,-0.038004478,0.077306362,-0.031388747
0.089233398,-0.992919922,0.104858398,-0.031875841,0.118741277,-0.032188135
0.098022461,-0.974853516,0.134155273,-0.024414891,0.147519225,-0.028590891
0.108520508,-0.97644043,0.126342773,-0.028678291,0.138859195,-0.023394873
0.089233398,-0.988647461,0.104858398,-0.047730358,0.087165473,-0.009272361
0.074951172,-0.999145508,0.098876953,-0.050261752,0.04173362,-7.94058E-05
0.065307617,-0.990112305,0.112304688,-0.037338322,-0.041935599,0.014442799
0.071899414,-0.993164063,0.122924805,-0.02854506,-0.062586441,0.013376949
0.092773438,-0.98034668,0.106201172,-0.019352104,-0.056457804,0.0123111
0.106567383,-0.983764648,0.112548828,0.002631051,0.034405902,0.014576031
0.102294922,-0.982299805,0.085693359,0.009425844,0.095292579,0.010445862
0.095458984,-0.989379883,0.078979492,0.017819412,0.155779562,-0.003943112
0.076904297,-1.007446289,0.109741211,0.022882199,0.143122594,-0.001145256
0.071411133,-1.00390625,0.121582031,0.025680055,0.079171599,0.030697011
0.100219727,-0.982055664,0.119873047,0.022082812,0.047462564,0.048416766
0.114257813,-0.969482422,0.116943359,0.006361525,0.017751997,0.070000227
0.121826172,-0.973022461,0.107299805,-0.001365887,0.012955672,0.069334071
0.097900391,-0.974975586,0.108886719,0.0079603,0.00309656,0.069733764
0.092285156,-0.998046875,0.108032227,0.019018493,0.00842581,0.076128864
0.092407227,-1.004394531,0.103027344,0.034473317,0.055989363,0.102375418
0.107421875,-0.980224609,0.086791992,0.030609611,0.076506974,0.105173274
0.099975586,-0.981201172,0.094116211,0.02514713,0.089430404,0.096513244
0.069702148,-0.971679688,0.098388672,0.044732123,0.079171599,0.06173989
0.075805664,-0.982910156,0.113769531,0.062451878,0.080903605,0.057076796
0.089111328,-0.984130859,0.113647461,0.071644833,0.092761185,0.058009415
0.071289063,-0.996826172,0.10546875,0.062984803,0.084101155,0.064271283
0.062866211,-1.003295898,0.089355469,0.050327835,0.038003146,0.068667914
0.082763672,-0.994262695,0.083740234,0.050194603,-0.00130007,0.060007884
0.092041016,-0.990478516,0.103027344,0.052725997,0.002297173,0.043620441
0.077148438,-0.985351563,0.117675781,0.060719871,0.04919457,0.014176337
0.066650391,-0.985961914,0.121337891,0.065516196,0.082768842,0.010712325
0.058105469,-0.974609375,0.120849609,0.076574389,0.145653988,0.007914469
0.054077148,-0.992553711,0.105834961,0.07564177,0.160042962,0.009513244
0.053344727,-0.999511719,0.127563477,0.06271834,0.119807127,0.011911406
0.067138672,-0.986206055,0.150634766,0.051526916,0.072376806,0.02097113
0.069091797,-0.979614258,0.146850586,0.039003179,-0.019685982,0.043220747
0.081787109,-0.969726563,0.141723633,0.033141005,-0.048330698,0.048949691
0.088256836,-0.982177734,0.145996094,0.032741311,-0.034741112,0.047484147
0.094726563,-1.004638672,0.12487793,0.037937329,0.028144034,0.043753672
0.068359375,-0.996704102,0.09765625,0.038736717,0.0642497,0.043353979
0.067871094,-0.997192383,0.116333008,0.057522322,0.126868383,0.043353979
0.052368164,-0.983520508,0.124023438,0.062585109,0.134329332,0.048283535
0.055786133,-0.979492188,0.125732422,0.065249734,0.105684616,0.06493744
0.055786133,-0.980957031,0.115234375,0.064450346,0.092894417,0.079859339
0.072631836,-0.989379883,0.092407227,0.060186946,0.086232855,0.076128864
0.069458008,-0.996459961,0.128173828,0.053658616,0.128067464,0.073863933
0.072143555,-1.007324219,0.136962891,0.046330897,0.162707587,0.079059951
0.059204102,-1.004272461,0.121337891,0.017952643,0.196281859,0.085588282
0.031616211,-1.010864258,0.127685547,0.007294144,0.172300236,0.082523963
0.03503418,-0.997436523,0.135986328,0.001698432,0.056522288,0.066536214
0.046020508,-0.993408203,0.142578125,0.002364588,-0.037672199,0.03709211
0.065917969,-0.987426758,0.129882813,0.002497819,-0.057523654,0.020171743
0.070678711,-1.002319336,0.124023438,-0.00283143,-0.041802368,0.005249844
0.069091797,-0.988037109,0.125854492,-0.012957005,-0.016355201,0.002851681
0.061279297,-0.990844727,0.13659668,-0.024414891,0.026412028,-0.01127083
0.047485352,-0.994384766,0.141113281,-0.016953942,0.038003146,-0.003276956
0.017578125,-0.996582031,0.148071289,-0.007361293,0.03094189,0.004183994
0.021362305,-0.992675781,0.131591797,-0.004696668,0.019217541,0.003917531
0.037109375,-1.001098633,0.116943359,-0.008427142,-0.008894251,0.010845556
0.046508789,-1.000732422,0.114624023,-0.01242408,-0.023949381,0.005249844
0.065429688,-0.989624023,0.14050293,-0.00602898,-0.04633223,0.009380012
0.049682617,-0.990478516,0.145629883,0.001165507,-0.044866686,0.004183994
0.050170898,-0.996704102,0.139892578,0.015288018,-0.021018294,0.00271845
0.046875,-0.999145508,0.123901367,0.019418187,0.009758123,0.010312631
0.050170898,-0.999145508,0.120239258,0.023281893,0.023880634,0.014842493
0.048095703,-0.989990234,0.100341797,0.031675461,0.04919457,0.003118144
0.041748047,-1.000244141,0.111450195,0.041801035,0.057188444,-0.001944643
0.026855469,-1.008056641,0.133911133,0.054458003,0.051059807,-0.005408655
0.033447266,-1.005493164,0.136352539,0.054857697,0.035871446,-0.002610799
0.045166016,-0.995117188,0.130371094,0.04659736,-0.023149994,-0.003809881
0.047363281,-0.989990234,0.130371094,0.042200729,-0.05925566,-0.013668992
0.037109375,-0.996826172,0.126708984,0.043000116,-0.102555813,-0.012869605
0.043701172,-1.002563477,0.113647461,0.044598891,-0.095094864,-0.009405593
0.053955078,-1.007202148,0.108520508,0.038203792,-0.029012168,-0.013136067
0.057861328,-1.006713867,0.118164063,0.035405936,0.012422747,-0.02419426
0.07824707,-0.989501953,0.11730957,0.020883731,0.075574355,-0.039116159
0.075927734,-0.986206055,0.119018555,0.013955706,0.079171599,-0.051106971
0.051879883,-0.977294922,0.123901367,0.0164871,0.037203758,-0.073623051
0.042602539,-0.969604492,0.127807617,0.020350806,0.007493191,-0.081750156
0.059448242,-0.979003906,0.131469727,0.027811755,-0.022350606,-0.081217231
0.055786133,-0.971069336,0.138671875,0.029676992,-0.016621663,-0.068693495
0.055908203,-0.960327148,0.155761719,0.039536104,0.031608046,-0.051639896
0.062255859,-0.958618164,0.140380859,0.040735185,0.05239212,-0.044445409
0.052612305,-0.966308594,0.146728516,0.045265048,0.02881019,-0.01873178
0.046142578,-0.976196289,0.150268555,0.043932735,-0.003298539,-0.00700743
0.061157227,-0.985595703,0.134155273,0.037404404,-0.050728861,-0.003143724
0.074584961,-0.980834961,0.127563477,0.035405936,-0.047664542,-0.008606205
0.073486328,-0.983032227,0.135864258,0.029144067,0.009624891,-0.028057966
0.060058594,-0.989501953,0.148803711,0.02621298,0.046529945,-0.035652147
0.059814453,-0.997192383,0.156616211,0.019951112,0.103419685,-0.028724123
0.052978516,-1.012451172,0.153930664,0.01542125,0.114477878,-0.011936986
0.056518555,-1.006469727,0.130859375,0.006494757,0.103819378,0.01670773
0.052734375,-0.98815918,0.111816406,0.004096594,0.08676578,0.011644943
0.054443359,-0.990356445,0.120483398,0.002231357,0.046529945,-0.014734842
0.055175781,-0.993286133,0.137573242,0.000632582,0.031341584,-0.022861948
0.047851563,-0.991821289,0.146484375,-0.00496313,0.000964861,-0.028990585
0.051513672,-1.000732422,0.131958008,-0.00389728,-0.013424113,-0.015267767
0.0625,-1.006103516,0.129150391,-0.002165274,-0.005030545,-0.008872668
0.061645508,-0.993896484,0.12121582,-0.001232655,0.007226729,-0.01020498
0.057250977,-0.990234375,0.124145508,-0.000832962,-0.017287819,-0.018065623
0.055664063,-0.985595703,0.132202148,0.002764282,-0.048330698,-0.016866542
0.053100586,-0.986083984,0.142211914,0.01115785,-0.11721125,-0.005275424
0.051147461,-0.987670898,0.153320313,0.017286487,-0.141459336,0.007514775
0.061035156,-0.991821289,0.147705078,0.019817881,-0.163708953,0.01670773
0.059326172,-0.980712891,0.123413086,0.028078217,-0.181828401,0.025367761
0.067871094,-0.977783203,0.141845703,0.02941053,-0.150918754,0.015641881
0.073608398,-0.975219727,0.130859375,0.029943455,-0.114946319,0.010312631
0.072998047,-0.98815918,0.126586914,0.02941053,-0.026880469,-0.0004791
0.067993164,-0.996459961,0.141357422,0.027678524,0.061185381,0.000187057
0.061767578,-0.987548828,0.131103516,0.023148662,0.103819378,-0.000612331
0.069213867,-0.984130859,0.131591797,0.018752031,0.105951078,-0.002077874
0.060302734,-0.989257813,0.150512695,0.004496288,0.076773437,-0.007140662
0.046875,-0.998413086,0.14855957,-0.000966193,0.053724432,-0.006074812
0.05065918,-0.993530273,0.154541016,-0.008027449,0.004695335,0.007115081
0.061889648,-0.98059082,0.152954102,-0.009626224,-0.0227503,0.014842493
0.065551758,-0.979370117,0.139404297,-0.016820711,-0.027280162,0.010312631
0.060058594,-0.978149414,0.140869141,-0.019352104,-0.017687513,0.006049231
0.063232422,-0.994262695,0.139404297,-0.01895241,-0.01089272,0.004450456
0.061157227,-0.990478516,0.140869141,-0.008960067,-0.000100989,0.010978787
0.053466797,-1.001708984,0.143310547,-0.002431737,0.00629411,0.007248312
0.049072266,-0.996948242,0.128540039,0.017686181,0.027611109,-0.00700743
0.063354492,-1.008056641,0.103027344,0.020750499,0.051725963,-0.01553423
0.065551758,-1.001708984,0.115722656,0.017819412,0.108482472,-0.033520447
0.05859375,-0.995483398,0.125854492,0.017819412,0.120606515,-0.039782316
0.054443359,-0.997924805,0.153808594,0.017153256,0.100621829,-0.03165521
0.054199219,-0.990600586,0.134399414,0.002497819,0.05132627,-0.016999773
0.06628418,-1.009643555,0.140625,0.006228294,0.03094189,-0.022195792
0.053710938,-1.000732422,0.129882813,0.009292613,0.031474815,-0.017532698
0.056152344,-0.990722656,0.138793945,0.008359994,0.040268077,-0.020863479
0.053466797,-0.976196289,0.149169922,0.013422781,0.05132627,-0.021263173
0.053833008,-0.980102539,0.147216797,0.011957237,0.044265014,-0.019930861
0.044677734,-0.986083984,0.131225586,0.006627988,0.011090435,-0.012469911
0.033813477,-0.988647461,0.14855957,0.008093531,-0.014223501,-0.002344337
0.044799805,-0.979736328,0.145629883,0.009692306,-0.035140806,0.007648006
0.061401367,-0.963745117,0.128295898,-0.001365887,-0.044600224,0.016308037
0.080932617,-0.986694336,0.142578125,-0.003097893,-0.015422582,-0.008472974
0.076660156,-0.989501953,0.135375977,-0.004163743,0.003629485,-0.009405593
0.051635742,-0.994262695,0.138549805,-0.00922653,0.027344646,-0.010604674
0.040283203,-0.98840332,0.141113281,-0.008027449,0.024280328,-0.005541887
0.053466797,-0.983398438,0.145263672,-0.013623161,-0.00769517,0.005516306
0.060546875,-0.988647461,0.133056641,-0.014022855,-0.024615538,0.008713856
0.06237793,-1.000610352,0.128417969,-0.018419485,-0.044733455,0.006315694
0.051269531,-1.000854492,0.132080078,-0.017353636,-0.045399611,0.001919063
0.053710938,-0.990844727,0.133789063,-0.011224998,-0.031543562,-0.005541887
0.064819336,-0.986816406,0.12902832,-0.007361293,-0.020751832,-0.005675118
0.062011719,-0.996459961,0.12878418,-0.006961599,-0.009160714,-0.015667461
0.056030273,-0.995483398,0.125366211,-0.001232655,-0.018620132,-0.022861948
0.067016602,-0.993286133,0.14074707,0.001165507,-0.027679856,-0.02419426
0.064941406,-0.990600586,0.125366211,0.000232888,-0.028479244,-0.024993648
0.058105469,-0.987060547,0.119262695,0.004496288,-0.003032077,-0.033253985
0.049194336,-0.994750977,0.120605469,0.011291081,0.012822441,-0.036318303
0.042114258,-0.988525391,0.135742188,0.02727883,0.024813253,-0.028857354
0.040283203,-0.990844727,0.14050293,0.030209917,0.019617234,-0.021529636
0.0546875,-0.988037109,0.133300781,0.022216043,-0.001566533,-0.010071749
0.062988281,-0.985107422,0.127685547,0.014755093,-0.008494557,-0.013668992
0.069213867,-0.99621582,0.128662109,-0.00069973,-0.020352138,-0.026592423
0.063598633,-0.998657227,0.126953125,-0.003364355,-0.032076487,-0.029390279
0.062866211,-0.993041992,0.136230469,-0.000832962,-0.04313468,-0.019397936
0.066650391,-0.989624023,0.142822266,-0.003364355,-0.034074956,-0.01340253
0.071899414,-0.990966797,0.13671875,-0.015754861,-0.003032077,-0.008739436
0.076538086,-0.990478516,0.121337891,-0.028145366,0.000698398,-0.012203449
0.063842773,-0.991699219,0.127807617,-0.031076453,-0.008894251,-0.016866542
0.053710938,-0.992919922,0.134033203,-0.03174261,-0.033408799,-0.018065623
0.057861328,-0.977661133,0.12878418,-0.032142303,-0.05499226,-0.007806818
0.063232422,-0.967529297,0.127807617,-0.029077985,-0.062586441,-0.000345868
0.071899414,-0.973876953,0.137329102,-0.023615504,-0.074976947,0.001386138
0.06262207,-0.983764648,0.125854492,-0.023881966,-0.080172965,0.001252907
0.064208984,-1.000244141,0.118774414,-0.017220404,-0.081904971,-0.0004791
0.057128906,-0.996337891,0.122680664,-0.012690542,-0.073378172,0.002052294
0.063964844,-0.980957031,0.119384766,-0.00709483,-0.034208187,0.00911355
0.075683594,-0.982666016,0.120361328,-0.014555779,0.008825504,0.003917531
0.071289063,-0.99206543,0.118408203,-0.013756392,0.027877571,-0.007540355
0.056396484,-0.997070313,0.113037109,-0.011891155,0.039068995,-0.011004368
0.053833008,-0.989990234,0.122558594,-0.003364355,0.053191507,-0.001145256
0.056274414,-0.978271484,0.127197266,-0.000566499,0.049327801,0.002185525
0.062011719,-0.970336914,0.128173828,0.007427375,0.033739746,0.003651069
0.060302734,-0.978637695,0.128540039,0.010092,0.026545259,0.006448925
0.060180664,-0.983520508,0.130737305,0.019151724,0.029476346,0.027899155
0.064331055,-0.984863281,0.131103516,0.018485568,0.032807127,0.037891498
0.058959961,-0.976806641,0.131469727,0.011824006,0.029609577,0.048949691
0.056152344,-0.980224609,0.131958008,0.008493225,0.026811721,0.04455306
0.070068359,-0.996826172,0.107421875,0.001565201,0.03307359,0.024301911
0.069091797,-0.994628906,0.100952148,-0.00069973,0.045064401,0.014709262
0.054077148,-1,0.133300781,-3.35743E-05,0.046663176,0.015242187
0.043579102,-0.997680664,0.132568359,0.002364588,0.037736683,0.019772049
0.049438477,-0.994506836,0.124633789,0.005029213,0.038003146,0.012577562
0.048217773,-0.997192383,0.125244141,0.006228294,0.059586607,-0.002211106
0.065429688,-1.009277344,0.11315918,0.002231357,0.128333927,-0.01553423
0.068237305,-1.00769043,0.135131836,-0.004030511,0.143655519,-0.012869605
0.044067383,-1.009643555,0.103393555,-0.003764049,0.099822441,-0.003676649
0.043579102,-1.001464844,0.09765625,-3.35743E-05,0.057321675,-7.94058E-05
0.068115234,-0.982177734,0.115844727,0.0036969,0.017618766,-0.013668992
0.081298828,-0.977416992,0.108398438,0.002631051,0.067980175,-0.030189666
0.056274414,-0.974243164,0.136352539,0.003963363,0.100488597,-0.037650616
0.044311523,-0.975952148,0.134887695,0.005961832,0.146719838,-0.046310646
0.050048828,-0.995117188,0.132202148,0.000499351,0.146320144,-0.039249391
0.053466797,-0.999267578,0.120605469,-0.011624692,0.092627954,-0.01873178
0.070678711,-0.983276367,0.115966797,-0.018552717,0.052258888,-0.006341274
0.067749023,-0.96081543,0.129882813,-0.033474616,0.001631017,-0.003143724
0.049560547,-0.958374023,0.149291992,-0.038537403,-0.000500683,-0.009672055
0.032836914,-0.970825195,0.140991211,-0.054658383,0.003762717,-0.030855822
0.048828125,-0.999023438,0.132446289,-0.059987633,-0.003032077,-0.02845766
0.06237793,-1.005859375,0.125732422,-0.073177525,-0.010359795,-0.001278487
0.053833008,-1.006591797,0.091552734,-0.055058077,-0.006895783,-0.0004791
0.059570313,-0.998046875,0.085571289,-0.047463896,-0.003831464,-0.000745562
0.078857422,-0.956665039,0.151977539,-0.074376607,0.025346178,-0.006074812
0.05847168,-0.949951172,0.146850586,-0.094894218,0.028144034,-0.01020498
0.030151367,-0.98425293,0.121948242,-0.118875841,0.001364554,-0.016866542
0.045776367,-1.02746582,0.091186523,-0.127002947,-0.027813087,-0.003676649
0.048950195,-1.030273438,0.052001953,-0.107551185,-0.140793179,0.014309568
0.060302734,-1.010375977,0.067504883,-0.083969256,-0.196617069,0.011644943
0.067749023,-1.010742188,0.106933594,-0.054658383,-0.270160714,0.009646475
0.06652832,-0.986083984,0.113769531,-0.051860527,-0.274823807,0.011911406
0.066894531,-0.991821289,0.119873047,-0.054258689,-0.25896929,0.01670773
0.064941406,-0.989379883,0.111694336,-0.019618567,-0.203411862,0.025900686
0.066772461,-0.998168945,0.055175781,0.011690775,-0.165307728,0.022969599
0.05847168,-1.010986328,0.06652832,0.081104251,-0.081638509,0.024301911
0.048583984,-1.008056641,0.083618164,0.111880668,-0.044067299,0.022303443
0.043701172,-0.997192383,0.087280273,0.148785721,0.014687678,0.022170211
0.046875,-0.976806641,0.087280273,0.146920484,0.031341584,0.029364698
0.04675293,-0.971435547,0.110839844,0.13892661,0.025745871,0.033494867
0.036499023,-0.979614258,0.120727539,0.12173978,0.004029179,0.036692417
0.038208008,-0.991821289,0.118408203,0.114545293,-0.004364389,0.040689354
0.051757813,-0.997314453,0.110595703,0.108016962,-0.01409027,0.04455306
0.063354492,-0.994506836,0.098999023,0.100822475,-0.009293945,0.043087516
0.078857422,-0.998901367,0.109375,0.066848509,0.015087372,0.026566842
0.069580078,-0.998901367,0.115966797,0.048862291,0.032807127,0.016974193
0.059326172,-1.005981445,0.125488281,0.031408999,0.052925044,0.009912937
0.05847168,-0.998535156,0.120483398,0.027944986,0.052658582,0.0101794
0.061767578,-0.990966797,0.122680664,0.018085874,0.038669302,0.006049231
0.044311523,-0.995117188,0.117919922,0.006627988,0.028010802,0.000320288
0.035522461,-0.999389648,0.128540039,0.01328955,0.024413559,0.000986444
0.037719727,-0.989990234,0.127929688,0.023948049,0.030275734,0.000853213
0.0390625,-0.990966797,0.131591797,0.043533041,0.05892045,5.38254E-05
0.047607422,-0.995239258,0.127929688,0.054724466,0.075441124,0.001785832
0.056518555,-0.983886719,0.122314453,0.06485004,0.096891354,-0.004342806
0.053833008,-0.978271484,0.133544922,0.063118034,0.089830098,-0.01446838
0.041870117,-0.996337891,0.14855957,0.064716809,0.051059807,-0.031255516
0.04675293,-0.992797852,0.127807617,0.059920484,0.034805596,-0.037117691
0.064819336,-0.996582031,0.130737305,0.059920484,0.019217541,-0.03485276
0.056640625,-0.999633789,0.121582031,0.056722934,0.026811721,-0.033120753
0.062988281,-0.989013672,0.115966797,0.034473317,0.051459501,-0.047909421
0.060302734,-0.989990234,0.121704102,0.019684649,0.064382931,-0.056036527
0.062133789,-0.983276367,0.118041992,-0.000566499,0.073442656,-0.061898701
0.045776367,-0.979003906,0.131958008,-0.004163743,0.061851538,-0.058168227
0.026611328,-0.98425293,0.137817383,-0.00602898,0.012023054,-0.040981397
0.027099609,-0.991577148,0.133178711,-0.003364355,-0.018620132,-0.027525041
0.044189453,-1.009277344,0.114013672,0.000499351,-0.055258723,-0.005808349
0.046142578,-0.999633789,0.095947266,0.007294144,-0.055391954,-0.003410187
0.035644531,-0.994873047,0.113891602,0.034073623,-0.0270137,-0.011936986
0.036132813,-0.987915039,0.118041992,0.051393685,-0.014356732,-0.022462254
0.046508789,-0.993652344,0.111572266,0.078306395,0.003363023,-0.02419426
0.063110352,-0.98828125,0.108764648,0.088032276,0.013621829,-0.022195792
0.054443359,-0.990722656,0.119018555,0.088298738,0.014687678,-0.019930861
0.050292969,-0.989135742,0.124267578,0.091363057,0.003229792,-0.019664398
0.054443359,-0.984863281,0.135620117,0.090430438,-0.006496089,-0.023794567
0.064086914,-0.987182617,0.117553711,0.083235951,-0.019952444,-0.026858885
0.056396484,-0.987060547,0.122436523,0.075775002,-0.017154588,-0.026592423
0.045043945,-0.993286133,0.139282227,0.070312521,-0.00236592,-0.025126879
0.048828125,-0.995361328,0.134033203,0.069246671,0.004695335,-0.026992116
0.055175781,-0.997924805,0.138061523,0.071911296,0.009091966,-0.023794567
0.052246094,-0.982788086,0.169555664,0.051793378,0.00522826,-0.030322897
0.059082031,-0.985717773,0.159179688,0.021683118,-0.001166839,-0.031521979
0.076904297,-0.986694336,0.144897461,0.003830132,-0.000633914,-0.032188135
0.077758789,-0.984985352,0.142089844,-0.017220404,-0.005030545,-0.027258579
0.076171875,-0.979858398,0.126220703,-0.024814585,-0.000100989,-0.033253985
0.063720703,-0.984008789,0.133300781,-0.032009072,0.002963329,-0.039116159
0.052978516,-0.986572266,0.139526367,-0.037471553,0.005761185,-0.05097374
0.057617188,-0.984863281,0.13684082,-0.032941691,0.013888291,-0.060299927
0.05456543,-0.984741211,0.122192383,-0.016554248,0.055856132,-0.091609268
0.047119141,-0.982299805,0.123779297,-0.009759455,0.084101155,-0.11226011
0.047119141,-1.002441406,0.134887695,-0.01135823,0.144321676,-0.148365777
0.056762695,-1.004150391,0.12902832,-0.016953942,0.169235918,-0.163021213
0.075073242,-0.999389648,0.120849609,-0.028145366,0.200545259,-0.192465317
0.084716797,-1.003295898,0.147094727,-0.03613924,0.200545259,-0.207920141
0.078491211,-0.996948242,0.143798828,-0.059321476,0.182159348,-0.260946175
0.083496094,-0.985473633,0.114135742,-0.063451645,0.167770374,-0.289191198
0.083984375,-0.983154297,0.120117188,-0.060920251,0.133929639,-0.343816007
0.085327148,-0.997680664,0.134521484,-0.060254095,0.125003146,-0.364999774
0.091430664,-1.005737305,0.145874023,-0.062119332,0.138992426,-0.386716466
0.112182617,-0.988647461,0.134521484,-0.064517495,0.161908199,-0.405502071
0.121459961,-0.987548828,0.124145508,-0.057189776,0.197214478,-0.452799161
0.126342773,-0.983398438,0.141235352,-0.057323008,0.201877571,-0.492502071
0.140136719,-0.98828125,0.155883789,-0.069713513,0.191485535,-0.495966083
0.139160156,-0.989746094,0.14831543,-0.091829899,0.149784156,-0.489837446
0.145141602,-1.005859375,0.143066406,-0.105153023,0.11048094,-0.468253985
0.161621094,-1.021118164,0.134277344,-0.121407234,0.101154754,-0.464257048
0.162963867,-1.003662109,0.115722656,-0.148186714,0.088497786,-0.489837446
0.170532227,-0.995727539,0.116088867,-0.148453176,0.089830098,-0.517149851
0.180175781,-0.980712891,0.108032227,-0.135796208,0.098756591,-0.549391811
0.200561523,-0.985839844,0.119628906,-0.131266346,0.102087372,-0.561382623
0.19519043,-0.997924805,0.107299805,-0.126603253,0.126068996,-0.57510544
0.210327148,-0.983520508,0.072387695,-0.122473084,0.149384463,-0.586829789
0.212402344,-0.961791992,0.087646484,-0.105153023,0.187488597,-0.618405593
0.212158203,-0.947875977,0.099731445,-0.096359761,0.186023054,-0.631195793
0.23046875,-0.977294922,0.093994141,-0.091829899,0.144987832,-0.633860417
0.243652344,-0.998168945,0.120605469,-0.101689011,0.112745872,-0.628664399
0.2578125,-0.967773438,0.105224609,-0.107417954,0.05239212,-0.606015088
0.273071289,-0.958618164,0.103149414,-0.104087173,0.041067464,-0.614275425
0.281005859,-0.962646484,0.093505859,-0.091696668,0.050127188,-0.625866543
0.284179688,-0.974243164,0.081176758,-0.088365887,0.061851538,-0.634260111
0.288085938,-0.948852539,0.071655273,-0.075042763,0.093693804,-0.661838978
0.284301758,-0.940673828,0.077636719,-0.057722701,0.102620297,-0.674495946
0.333618164,-0.937744141,0.070800781,-0.04253434,0.098356898,-0.676361183
0.340698242,-0.943969727,0.067993164,-0.06611627,0.08676578,-0.657042653
0.364501953,-0.951416016,0.088134766,-0.116744141,0.046130251,-0.63092933
0.349243164,-0.944702148,0.104980469,-0.137661446,0.02774434,-0.616007431
0.362548828,-0.912963867,0.092163086,-0.142990695,0.016286453,-0.59229227
0.362670898,-0.907470703,0.083862305,-0.135130052,0.02561264,-0.58150054
0.369628906,-0.90612793,0.079345703,-0.126203559,0.074242043,-0.573373434
0.380737305,-0.917358398,0.078125,-0.124738015,0.100621829,-0.570708809
0.383056641,-0.888061523,0.078491211,-0.126736484,0.125935764,-0.58363224
0.389526367,-0.883056641,0.064208984,-0.130999884,0.120473283,-0.602284613
0.402832031,-0.886108398,0.063232422,-0.136462365,0.076506974,-0.627598549
0.420288086,-0.890014648,0.083129883,-0.135263283,0.057721369,-0.639322898
0.425415039,-0.87890625,0.057373047,-0.135662977,0.04812872,-0.647583235
0.442504883,-0.885864258,0.039428711,-0.123805397,0.078505443,-0.649048779
0.474731445,-0.876464844,0.048706055,-0.122073391,0.116209884,-0.649581704
0.479858398,-0.887695313,0.068237305,-0.134597127,0.190019991,-0.657442347
0.483032227,-0.876708984,0.075317383,-0.137661446,0.201611109,-0.672897171
0.507202148,-0.873291016,0.047241211,-0.141258689,0.194416622,-0.686353526
0.519287109,-0.88684082,0.044067383,-0.121940159,0.181493192,-0.695146788
0.540893555,-0.883789063,0.025390625,-0.110748735,0.195882166,-0.702474506
0.53918457,-0.878540039,0.014160156,-0.115944754,0.286612641,-0.727788442
0.51953125,-0.879394531,0.068603516,-0.130866653,0.336441125,-0.749505134
0.529541016,-0.858886719,0.062866211,-0.151783957,0.352695336,-0.765226421
0.534301758,-0.841918945,0.049072266,-0.151251032,0.313258889,-0.757232546
0.553222656,-0.845825195,0.059204102,-0.159777832,0.210804065,-0.735515854
0.565795898,-0.851806641,0.058349609,-0.169503712,0.17269993,-0.72539028
0.578125,-0.860107422,0.070068359,-0.180295443,0.148585075,-0.704206512
0.583007813,-0.833618164,0.056884766,-0.160976913,0.129399777,-0.684887983
0.596679688,-0.823730469,0.063110352,-0.138860527,0.11581019,-0.677160571
0.594726563,-0.820922852,0.071533203,-0.113146898,0.066248169,-0.649048779
0.592895508,-0.8125,0.06652832,-0.104753329,0.039068995,-0.637990586
0.61315918,-0.808227539,0.048461914,-0.097825305,0.01375506,-0.611477569
0.609008789,-0.806274414,0.032226563,-0.081437862,0.019350772,-0.596955364
0.628417969,-0.812866211,0.037963867,-0.043067265,0.05239212,-0.578835915
0.6328125,-0.806762695,0.038818359,-0.035473084,0.063850006,-0.561915547
0.619506836,-0.78125,0.057983398,-0.000433268,0.031874508,-0.541264705
0.624389648,-0.763671875,0.050170898,0.015154787,-0.000100989,-0.534070218
0.648681641,-0.76550293,0.046264648,0.054990928,-0.042202061,-0.526875731
0.657348633,-0.748046875,0.038208008,0.067514665,-0.049929473,-0.521679713
0.679199219,-0.737915039,0.047485352,0.087899045,-0.080439427,-0.51168737
0.670410156,-0.716064453,0.052490234,0.102820943,-0.115745706,-0.490370371
0.681884766,-0.728027344,0.05847168,0.11001543,-0.128402674,-0.476514322
0.693359375,-0.729614258,0.04699707,0.128401342,-0.133865155,-0.461992117
0.712280273,-0.731079102,0.013549805,0.130533042,-0.102555813,-0.463057967
0.716552734,-0.72644043,0.025634766,0.122006242,-0.072045859,-0.465989054
0.71105957,-0.72253418,0.068115234,0.124404404,-0.007561939,-0.46665521
0.710205078,-0.682983398,0.065917969,0.126402873,0.011490129,-0.472384154
0.7265625,-0.674804688,0.052734375,0.132265048,0.045197633,-0.516616926
0.728637695,-0.688720703,0.031616211,0.132664741,0.067980175,-0.546860417
0.712280273,-0.678833008,0.020385742,0.165706089,0.101954141,-0.599220295
0.729003906,-0.647705078,0.061523438,0.186090469,0.102087372,-0.623734843
0.745849609,-0.644042969,0.076660156,0.18302615,0.079571293,-0.62879763
0.765625,-0.639892578,0.067993164,0.176764282,0.049061339,-0.635059499
0.783325195,-0.639892578,0.075439453,0.156246671,0.018551384,-0.643586298
0.768676758,-0.634887695,0.093139648,0.159977146,0.05892045,-0.63412688
0.779296875,-0.648681641,0.082275391,0.174765813,0.087431936,-0.631861949
0.815307617,-0.633911133,0.02331543,0.191286487,0.112479409,-0.630662868
0.82409668,-0.638183594,0.037109375,0.199813287,0.145387525,-0.655310647
0.805419922,-0.616577148,0.06652832,0.20660808,0.149384463,-0.676627646
0.793945313,-0.611206055,0.05078125,0.222062904,0.119673896,-0.730985992
0.792480469,-0.613647461,0.067626953,0.231655553,0.100488597,-0.753102378
0.812133789,-0.593505859,0.054931641,0.249108846,0.058254294,-0.792938519
0.833374023,-0.562255859,0.053710938,0.255237483,0.01588676,-0.810924736
0.863647461,-0.523803711,0.11328125,0.25283932,-0.005430239,-0.81025858
0.873779297,-0.521484375,0.114135742,0.226326304,-0.002099458,-0.799200387
0.892333984,-0.526123047,0.135986328,0.163307927,0.021216009,-0.756966084
0.87097168,-0.507202148,0.13684082,0.137993991,0.020283391,-0.728987523
0.879638672,-0.499267578,0.128295898,0.089497819,-0.025814619,-0.673030402
0.897338867,-0.519165039,0.121704102,0.055124159,-0.059122429,-0.638789973
0.897583008,-0.524291992,0.125488281,-0.032408766,-0.089232689,-0.576970678
0.896362305,-0.506713867,0.101318359,-0.061186714,-0.090165308,-0.552722592
0.899169922,-0.505249023,0.094238281,-0.090097893,-0.074976947,-0.524344338
0.890991211,-0.474853516,0.10949707,-0.102754861,-0.064318447,-0.519015088
0.880249023,-0.459228516,0.082641602,-0.123405703,-0.059122429,-0.529407125
0.889892578,-0.465698242,0.065063477,-0.116077985,-0.060454741,-0.533936987
0.886108398,-0.454589844,0.063598633,-0.102888092,-0.056191342,-0.540065624
0.894287109,-0.448974609,0.084472656,-0.078773237,-0.020485369,-0.544861949
0.907470703,-0.424682617,0.104858398,-0.077707388,0.00735996,-0.543129943
0.915161133,-0.411499023,0.098022461,-0.096359761,0.080104218,-0.550191198
0.930541992,-0.417236328,0.099609375,-0.103154555,0.106350772,-0.546327492
0.92578125,-0.414794922,0.085083008,-0.112880435,0.090096561,-0.552989054
0.924682617,-0.407104492,0.086303711,-0.117809991,0.048528414,-0.560982929
0.930786133,-0.393432617,0.077880859,-0.133930971,-0.050595629,-0.578702684
0.935058594,-0.388793945,0.067016602,-0.144456239,-0.079107115,-0.582699621
0.952392578,-0.39465332,0.084106445,-0.161376607,-0.089765614,-0.585897171
0.97644043,-0.391723633,0.049804688,-0.184425611,-0.04313468,-0.593491351
0.964233398,-0.377075195,0.038330078,-0.197748735,-0.004897314,-0.595756283
0.946533203,-0.362792969,0.075073242,-0.210938628,0.022814784,-0.597488289
0.942749023,-0.366210938,0.066162109,-0.20680846,0.010424279,-0.598154445
0.958740234,-0.353637695,0.046508789,-0.199214279,-0.00982687,-0.622269299
0.97277832,-0.347412109,0.048583984,-0.214535872,0.003629485,-0.633860417
0.962402344,-0.307983398,0.079345703,-0.257436331,0.031741277,-0.640388748
0.947021484,-0.294921875,0.071899414,-0.272624693,0.02134924,-0.649448473
0.967773438,-0.276245117,0.065917969,-0.278087173,-0.013424113,-0.66103959
0.969238281,-0.284912109,0.063842773,-0.294341385,-0.084836058,-0.66317129
0.982543945,-0.26965332,0.077392578,-0.312594065,-0.108417988,-0.655443878
0.990966797,-0.244628906,0.064331055,-0.360157618,-0.14518981,-0.653711872
0.994384766,-0.223876953,0.024414063,-0.37441336,-0.168105584,-0.673430096
1.018310547,-0.209960938,0.009033203,-0.376278598,-0.129202061,-0.711001306
1.033203125,-0.237792969,0.030639648,-0.40439039,-0.015156119,-0.733517385
1.029418945,-0.231933594,0.012817383,-0.418113207,0.02241509,-0.747639897
1.000610352,-0.207397461,-0.012451172,-0.403857465,0.012955672,-0.776018151
0.99621582,-0.202758789,-0.008666992,-0.393998353,-0.01195857,-0.787609269
0.999023438,-0.177734375,0.011108398,-0.370149961,-0.035274037,-0.798534231
1.005859375,-0.172973633,0.007568359,-0.359224999,-0.027679856,-0.801598549
1.013061523,-0.179077148,-0.00390625,-0.32178702,-0.035940193,-0.793471444
1.013916016,-0.146606445,-0.010009766,-0.307664509,-0.05712396,-0.794404062
1.029541016,-0.125488281,-0.023193359,-0.275822242,-0.074044328,-0.820650617
1.022949219,-0.08190918,-0.022460938,-0.247976913,0.000565167,-0.839569453
1.021362305,-0.094360352,0.014770508,-0.242114738,0.024147097,-0.848495946
1.042480469,-0.079467773,0.007324219,-0.2615665,0.002163942,-0.875142194
1.047363281,-0.047973633,-0.002441406,-0.272224999,-0.022883531,-0.885933925
1.039306641,-0.031738281,0.0078125,-0.28847921,-0.041136211,-0.899523511
1.027099609,-0.006591797,0.021728516,-0.308730359,0.000298704,-0.936695027
1.020263672,-0.02722168,0.021484375,-0.324318414,0.008692273,-0.950151383
1.021362305,0.015014648,0.011352539,-0.332578751,-0.022883531,-0.971601612
1.013061523,0.029296875,-0.020751953,-0.321653789,-0.028878937,-0.977996712
1.001342773,0.054199219,-0.015869141,-0.283149961,0.005361492,-0.996116161
1.011962891,0.048706055,0.009399414,-0.274356699,0.034539133,-1.008240204
1.01953125,0.046142578,-0.022460938,-0.259568031,0.079837755,-1.011704216
1.032592773,0.054931641,-0.0078125,-0.240782426,0.080903605,-0.986123818
1.026855469,0.083984375,-0.003540039,-0.228125458,0.041600389,-0.943489821
0.987304688,0.100830078,0.005126953,-0.22292944,-0.008228095,-0.934030402
0.998535156,0.134277344,-0.009765625,-0.207341385,-0.129734986,-0.901655211
1.001464844,0.150512695,-0.005249023,-0.195883498,-0.153050454,-0.887133006
1.012084961,0.179077148,-0.014770508,-0.178829899,-0.071912628,-0.863417845
0.977661133,0.193115234,-0.021606445,-0.162575688,0.005894417,-0.855823664
0.982421875,0.209472656,-0.044555664,-0.123805397,0.143389057,-0.8768742
0.966674805,0.217163086,-0.028808594,-0.107684417,0.182958735,-0.895393343
0.968017578,0.220336914,-0.021728516,-0.042667571,0.170701461,-0.897791505
0.981323242,0.245361328,-0.00769043,-0.019218873,0.127401308,-0.884734843
0.986816406,0.2578125,0.001708984,-0.008693605,0.052125657,-0.865949239
0.990356445,0.283935547,0.009643555,-0.022416423,0.039202227,-0.865949239
0.983520508,0.290893555,0.006591797,-0.03720509,0.067846943,-0.8811376
0.967773438,0.303588867,-0.014282227,-0.042001415,0.076640205,-0.901255517
0.970092773,0.319702148,-0.000732422,-0.03720509,0.069978643,-0.903520448
0.980957031,0.350585938,-0.018676758,-0.049862058,0.051059807,-0.91018201
0.970703125,0.368041992,0.014648438,-0.052393452,0.04812872,-0.908450004
0.957885742,0.352539063,-0.002319336,-0.070779363,0.060119531,-0.919508197
0.944091797,0.376464844,0.009277344,-0.064117801,0.066248169,-0.922039591
0.936157227,0.403564453,0.006103516,-0.041868184,0.046929639,-0.929100847
0.928100586,0.409790039,0.004394531,-0.028678291,0.028010802,-0.933897171
0.954101563,0.419677734,0.008422852,-0.01348993,0.005627954,-0.924038059
0.965209961,0.41809082,0.024047852,-0.006295443,0.017885228,-0.896858886
0.969360352,0.445800781,0.002807617,-0.001099424,0.108082778,-0.851560265
0.951293945,0.453491211,0.017578125,0.00476275,0.156845412,-0.842100846
0.908569336,0.462646484,0.0078125,-0.003097893,0.190419685,-0.857955364
0.911621094,0.487915039,0.04699707,-0.005362824,0.176963329,-0.847296865
0.917480469,0.491210938,0.040039063,-0.00069973,0.108482472,-0.795603144
0.894042969,0.519042969,0.035400391,-3.35743E-05,0.092095029,-0.784944644
0.899169922,0.508789063,0.030883789,0.001698432,0.131531476,-0.779615395
0.877929688,0.514282227,0.045043945,0.002231357,0.160575887,-0.773619989
0.859985352,0.532104492,0.035522461,0.013689244,0.20920529,-0.762028871
0.837036133,0.57019043,0.049560547,0.025280361,0.211070527,-0.756299928
0.842895508,0.562255859,0.049194336,0.040335492,0.175764248,-0.746840509
0.858520508,0.556152344,0.045776367,0.059654022,0.145387525,-0.70180835
0.872924805,0.569335938,0.048828125,0.067781127,0.134862257,-0.672897171
0.858154297,0.578125,0.036865234,0.055523853,0.115277265,-0.651180479
0.843994141,0.592041016,0.026855469,0.043133348,0.11581019,-0.66423714
0.816894531,0.586547852,0.041259766,0.031275767,0.100355366,-0.726989055
0.817260742,0.615966797,0.037109375,0.016353868,0.114078184,-0.792272362
0.815673828,0.608642578,0.056030273,0.014488631,0.129533008,-0.800399468
0.846557617,0.637573242,0.043457031,0.000232888,0.163506974,-0.804129943
0.818115234,0.634887695,0.060302734,-0.001898812,0.168569761,-0.790540356
0.789306641,0.637695313,0.045043945,-0.00816068,0.168170068,-0.81665368
0.76184082,0.632080078,0.041992188,0.004363057,0.183758123,-0.843832853
0.756591797,0.667358398,0.085571289,0.023814818,0.180160879,-0.8790059
0.776245117,0.68737793,0.079467773,0.016620331,0.163640205,-0.879538825
0.766235352,0.715576172,0.067993164,0.013422781,0.160975581,-0.835039591
0.760253906,0.708129883,0.07043457,0.010491694,0.172966392,-0.818785379
0.723388672,0.712890625,0.07019043,-0.003630818,0.178162411,-0.816786911
0.716430664,0.722045898,0.067016602,-0.009626224,0.1533814,-0.83064296
0.723266602,0.747802734,0.061645508,-0.010958536,0.091961798,-0.806528105
0.716430664,0.763305664,0.05065918,-0.015488398,0.083834692,-0.77908247
0.690063477,0.75793457,0.058227539,-0.019218873,0.087698398,-0.737514323
0.67175293,0.770507813,0.070922852,-0.026146897,0.072909731,-0.725656742
0.646118164,0.772827148,0.059326172,-0.04253434,0.046663176,-0.70820345
0.631958008,0.783203125,0.057495117,-0.034140772,0.05026042,-0.710601612
0.635620117,0.782348633,0.057373047,-0.018153023,0.051193038,-0.704606206
0.649169922,0.78894043,0.059082031,-0.02428166,0.077439593,-0.711534231
0.635864258,0.798095703,0.069335938,-0.025747204,0.113012334,-0.683155976
0.612670898,0.802978516,0.067993164,-0.030143835,0.113412028,-0.667701153
0.617797852,0.807250977,0.068603516,-0.029077985,0.102353835,-0.627065624
0.62097168,0.835571289,0.063354492,-0.033874309,0.100621829,-0.610944644
0.622070313,0.832763672,0.07434082,-0.064783957,0.102620297,-0.60401662
0.605224609,0.836547852,0.079467773,-0.099823773,0.105817847,-0.598154445
0.602539063,0.838745117,0.062866211,-0.111681354,0.117275734,-0.59122642
0.588256836,0.832885742,0.04675293,-0.099290849,0.133396714,-0.578036528
0.581298828,0.840454102,0.04309082,-0.085568031,0.126068996,-0.587096252
0.558105469,0.839111328,0.07421875,-0.066515963,0.066647862,-0.596422439
0.56262207,0.848754883,0.079101563,-0.061986101,0.04279947,-0.60401662
0.53112793,0.846923828,0.104492188,-0.044399577,0.024813253,-0.595889514
0.548828125,0.859130859,0.100708008,-0.040136178,0.022948015,-0.595889514
0.521606445,0.852783203,0.081054688,-0.032275535,0.012555979,-0.60081907
0.502685547,0.863891602,0.07019043,-0.00709483,-0.047931005,-0.6158742
0.502075195,0.879638672,0.091674805,9.9657E-05,-0.07750834,-0.619338212
0.505493164,0.880371094,0.095825195,-0.004563436,-0.085901908,-0.602284613
0.514526367,0.886108398,0.08190918,-0.011491461,-0.035806962,-0.599886451
0.518188477,0.897827148,0.084594727,-0.028811522,0.069845412,-0.600685838
0.457275391,0.912109375,0.090942383,-0.037738015,0.083967924,-0.593491351
0.457641602,0.894897461,0.081787109,-0.027345979,0.035871446,-0.593624583
0.487304688,0.914794922,0.087280273,-0.029744141,0.021216009,-0.585897171
0.481933594,0.900512695,0.076660156,-0.02961091,0.070378337,-0.594290739
0.450195313,0.912231445,0.076171875,-0.024947816,0.104751997,-0.611744031
0.423095703,0.910644531,0.081298828,0.006494757,0.109548322,-0.637457661
0.429321289,0.911743164,0.09753418,0.015021556,0.11048094,-0.657575578
0.428222656,0.916748047,0.114013672,0.018752031,0.138592732,-0.686087064
0.434204102,0.922241211,0.102539063,0.003830132,0.154047556,-0.693548013
0.408935547,0.918701172,0.111816406,-0.018153023,0.202410496,-0.710468381
0.357910156,0.925292969,0.090454102,-0.022816116,0.180027648,-0.730985992
0.37121582,0.923339844,0.100219727,-0.036006009,0.169235918,-0.751770065
0.381713867,0.956176758,0.145996094,-0.087166806,0.180294111,-0.747639897
0.389648438,0.963378906,0.107421875,-0.117277066,0.235984769,-0.74470881
0.331420898,0.96496582,0.075317383,-0.125537403,0.397727495,-0.747373434
0.302001953,0.961181641,0.09777832,-0.101822242,0.4186448,-0.743509728
0.286621094,0.96887207,0.105102539,-0.081304631,0.313525351,-0.711800693
0.290039063,0.982788086,0.110351563,-0.07797385,0.236784157,-0.687286145
0.278564453,0.999511719,0.095825195,-0.070779363,0.16737068,-0.622935456
0.248535156,0.988037109,0.122802734,-0.057855933,0.171367617,-0.576570984
0.254272461,0.99987793,0.115600586,-0.060254095,0.173499317,-0.562315241
0.249023438,0.978027344,0.108276367,-0.083969256,0.146586607,-0.55578691
0.223632813,0.996459961,0.141601563,-0.085568031,0.135928107,-0.505159039
0.235839844,0.990966797,0.135864258,-0.080372012,0.136860726,-0.482642959
0.194702148,1.006225586,0.135864258,-0.082370481,0.099023054,-0.459327492
0.219726563,0.983276367,0.145019531,-0.092895749,0.068246637,-0.456529636
0.224365234,0.973999023,0.124145508,-0.114878904,0.069978643,-0.466255517
0.183105469,0.993164063,0.152099609,-0.111148429,0.108882166,-0.461992117
0.19934082,0.991210938,0.157958984,-0.09622653,0.125003146,-0.463457661
0.17578125,0.984985352,0.15222168,-0.088099424,0.097823973,-0.458128411
0.180419922,1.010253906,0.174194336,-0.081304631,0.021216009,-0.449335149
0.190551758,0.999755859,0.117797852,-0.060120864,0.02454679,-0.442007431
0.163452148,1.008056641,0.116943359,-0.02854506,0.067314018,-0.428018151
0.154174805,1.013427734,0.131591797,0.030876074,0.075574355,-0.374059498
0.142456055,1.001953125,0.127441406,0.049661678,0.05132627,-0.353408656
0.156616211,1.002685547,0.124511719,0.060853103,0.021216009,-0.338220294
0.164916992,1.009155273,0.123168945,0.061918953,0.036137908,-0.342217232
0.152832031,1.034301758,0.150634766,0.051660147,0.072110343,-0.312106971
0.133789063,1.017822266,0.143066406,0.049661678,0.017885228,-0.254684307
0.134521484,1.008056641,0.12121582,0.048196135,0.034405902,-0.246956895
0.130737305,0.981445313,0.189453125,0.032075155,0.114477878,-0.257881856
0.133911133,0.991577148,0.185913086,0.016886793,0.145121063,-0.267874199
0.122924805,0.978759766,0.147949219,0.011424312,0.210937296,-0.252419376
0.129638672,0.986694336,0.130371094,0.02834468,0.234785688,-0.236031933
0.11340332,1.001464844,0.141723633,0.037137942,0.245310956,-0.206587829
0.094970703,1.010009766,0.189331055,0.034073623,0.23931555,-0.193131473
0.139160156,0.989868164,0.143310547,0.021416655,0.298070527,-0.18313913
0.125976563,0.976928711,0.122924805,0.019018493,0.359756592,-0.18313913
0.124267578,0.967285156,0.138427734,-0.00069973,0.376943422,-0.202724123
0.067260742,0.9921875,0.112670898,0.009559075,0.35096333,-0.211250922
0.047973633,0.987426758,0.153076172,0.040868417,0.250906668,-0.197927798
0.047363281,0.981201172,0.122802734,0.06058664,0.155779562,-0.196728717
0.07409668,0.994384766,0.118041992,0.082836257,0.018684616,-0.214448472
0.083374023,1.006347656,0.129394531,0.089098126,0.036537602,-0.188335149
0.094726563,1.009399414,0.125854492,0.08630027,0.106883697,-0.163953832
0.066650391,1.017700195,0.133300781,0.081237482,0.199212947,-0.120387216
0.020874023,1.014892578,0.155151367,0.091229826,0.07397558,-0.074289207
0.035888672,1.018798828,0.140258789,0.094693838,-0.021151525,-0.066295332
0.06237793,1.010375977,0.137817383,0.100422781,-0.082437896,-0.051240202
0.069091797,1.013305664,0.135009766,0.10242125,-0.077774803,-0.043246328
0.090087891,1.015869141,0.134277344,0.088165507,-0.055924879,-0.033653678
0.097045898,1.014770508,0.131713867,0.078572858,-0.03234295,-0.036851228
0.082641602,1.014892578,0.110351563,0.061119565,0.020683084,-0.053638365
0.075439453,1.00378418,0.123657227,0.057922015,0.024147097,-0.055370371
0.061035156,1.002929688,0.137817383,0.056722934,-0.034607881,-0.038050309
0.052368164,1.001953125,0.143066406,0.057788784,-0.086035139,-0.028057966
0.068969727,1.002929688,0.125244141,0.048595829,-0.140926411,-0.016200386
0.072875977,1.003051758,0.114135742,0.031808692,-0.101356732,-0.017932392
0.049438477,1.022949219,0.116577148,0.0036969,-0.008627789,-0.003543418
0.05871582,1.033813477,0.123413086,-0.006295443,-0.019685982,0.005116613
0.059082031,1.024658203,0.117431641,-0.032941691,-0.069647697,0.001119675
0.065917969,1.003417969,0.138061523,-0.046531277,-0.120941725,-0.013668992
0.083984375,1.007324219,0.114746094,-0.054658383,-0.128535905,-0.013935455
0.095336914,1.020385742,0.108520508,-0.058255626,-0.083104052,-0.005142193
0.099975586,1.020141602,0.099365234,-0.053459302,-0.05818981,-0.003676649
0.067504883,1.00793457,0.117675781,-0.018153023,-0.018220438,-0.005675118
0.067626953,1.014526367,0.134277344,0.016620331,-0.051927942,0.001519369
0.075439453,1.010131836,0.107299805,0.019284956,-0.071912628,-0.0004791
0.074951172,1.009155273,0.096801758,-0.008960067,-0.012358263,-0.019664398
0.088256836,0.998535156,0.135253906,-0.014689011,0.047595795,-0.032054904
0.090454102,0.994628906,0.145751953,0.012889856,0.08356823,-0.04777619
0.058837891,0.994384766,0.141357422,0.023814818,0.059186913,-0.04777619
0.056640625,0.988891602,0.145019531,0.026745905,-0.015822276,-0.034319835
0.072265625,0.987792969,0.150268555,0.017686181,-0.022217375,-0.025659804
0.086791992,0.972900391,0.125854492,0.019018493,0.073176193,-0.041914015
0.087646484,0.978637695,0.118530273,0.018485568,0.123137908,-0.04990789
0.05480957,1.000732422,0.140136719,0.039802567,0.15231555,-0.030456129
0.038330078,1.012451172,0.145874023,0.054724466,0.02987604,0.004183994
0.064086914,1.006835938,0.126708984,0.052059841,-0.029411862,0.006049231
0.076660156,1.004882813,0.126953125,0.036738248,-0.046865155,0.002851681
0.080322266,1.015869141,0.112426758,0.022615737,-0.010759489,0.002451988
0.067626953,1.028076172,0.108154297,0.005162444,0.065582012,0.015908343
0.04284668,1.016235352,0.116455078,0.002364588,0.067314018,0.025634224
0.043212891,1.017578125,0.12121582,0.009958769,0.029609577,0.048816459
0.073120117,1.016479492,0.133056641,0.005695369,0.013355366,0.051880778
0.083496094,1.020629883,0.132202148,-0.019885029,0.040801002,0.04135551
0.087036133,1.017456055,0.125610352,-0.029477678,0.071577418,0.026433611
0.092651367,1.029663086,0.114501953,-0.034673697,0.10501846,0.005916
0.090454102,1.02331543,0.122192383,-0.030410297,0.116476346,-0.005808349
0.086425781,1.027709961,0.130126953,-0.029344447,0.127534539,-0.012469911
0.068603516,1.009521484,0.133300781,-0.036538934,0.119807127,-0.014601611
0.067016602,1.001586914,0.130004883,-0.039736484,0.094892885,-0.044312178
0.069702148,1.00793457,0.122314453,-0.012690542,0.064116469,-0.06922642
0.069824219,1.01159668,0.114257813,0.005562138,0.045863789,-0.074155976
0.069824219,1.011352539,0.124633789,0.028078217,0.027477878,-0.068293801
0.07421875,0.998046875,0.127075195,0.028211449,0.031341584,-0.070825195
0.071044922,1.000732422,0.118774414,0.018219106,0.075974049,-0.078286144
0.059204102,0.997436523,0.124267578,0.012490162,0.10075506,-0.080551075
0.048950195,1.009887695,0.130615234,0.0058286,0.087165473,-0.072157507
0.054443359,1.017089844,0.141113281,0.001964894,0.063050619,-0.061898701
0.0546875,1.009643555,0.137207031,-0.007627755,0.035738214,-0.054704214
0.052001953,0.994506836,0.120361328,-0.009892686,0.049327801,-0.052306052
0.064208984,0.994384766,0.120605469,-0.020151492,0.073575887,-0.053505133
0.056274414,1.006713867,0.133056641,-0.042667571,0.138459501,-0.051506665
0.044677734,0.996337891,0.144042969,-0.048662977,0.149784156,-0.044045715
0.051757813,0.995239258,0.138305664,-0.033074922,0.092494723,-0.029390279
0.057128906,0.993652344,0.133666992,-0.020817648,0.058254294,-0.02526011
0.047851563,0.992553711,0.127441406,0.001565201,0.042666239,-0.02526011
0.040771484,1.002075195,0.130737305,0.010092,0.055189976,-0.021263173
0.045532227,1.00402832,0.134765625,0.011824006,0.078638674,-0.01127083
0.058349609,0.999389648,0.145385742,0.015021556,0.081036836,-0.008472974
0.06652832,1.001098633,0.140625,0.016087406,0.057721369,-0.015400998
0.046142578,1.005004883,0.129272461,0.007693838,0.05678875,-0.021396404
0.044677734,1.00793457,0.141723633,0.010891387,0.058121063,-0.015001305
0.053100586,1.008056641,0.14050293,0.014488631,0.049993957,-0.013668992
0.062744141,1.006958008,0.133178711,0.008493225,0.06105215,-0.020597017
0.057373047,1.001831055,0.131469727,-0.000566499,0.091428873,-0.025393342
0.053466797,0.99609375,0.132568359,-0.014422548,0.152981706,-0.03165521
0.024047852,1.004638672,0.144165039,-0.010825305,0.151382931,-0.030722591
0.036132813,1.007080078,0.133911133,0.010491694,0.07504143,-0.019797629
0.050170898,1.016235352,0.132202148,0.020883731,0.045730557,-0.024061029
0.042114258,1.019042969,0.136108398,0.024214512,0.032274202,-0.023927798
0.044677734,1.007568359,0.150756836,0.017020025,0.028144034,-0.022728717
0.051513672,1.004638672,0.149414063,-0.010958536,0.058254294,-0.032188135
0.058105469,1.015869141,0.148681641,-0.023349041,0.084767311,-0.039782316
0.053344727,1.008422852,0.133056641,-0.027212747,0.097024585,-0.043246328
0.038452148,1.009277344,0.118652344,-0.005496055,0.063450312,-0.032854291
0.051513672,1.012695313,0.130859375,0.028611142,0.011756591,-0.016067155
0.055786133,1.015258789,0.129272461,0.034340086,0.000831629,-0.018065623
0.060791016,1.017578125,0.139526367,0.032208386,0.027877571,-0.026592423
0.0546875,1.014526367,0.137451172,0.026479443,0.051859195,-0.028324429
0.056884766,1.011352539,0.134643555,0.017286487,0.069845412,-0.034453066
0.05065918,1.012695313,0.123535156,0.016753562,0.060385994,-0.037517384
0.04699707,1.018676758,0.128540039,0.013156319,0.040401308,-0.04031524
0.044189453,1.012329102,0.141601563,0.010624925,0.035205289,-0.038183541
0.042602539,1.006225586,0.137573242,0.008359994,0.04706287,-0.038716466
0.039550781,1.004760742,0.138793945,0.009425844,0.047462564,-0.035652147
0.039794922,1.008789063,0.128051758,0.012889856,0.02774434,-0.031788441
0.043579102,1.018310547,0.127319336,0.009559075,0.034006208,-0.036318303
0.048095703,1.015380859,0.135009766,0.011557544,0.053857663,-0.038450003
0.04675293,1.010620117,0.133300781,0.015021556,0.041200695,-0.036051841
0.046142578,1.00769043,0.123046875,0.022748968,0.001098092,-0.032454597
0.047851563,1.003662109,0.126098633,0.020883731,0.001231323,-0.030056435
0.046386719,1.002441406,0.1328125,0.013023087,0.040401308,-0.029656741
0.042358398,0.999023438,0.130371094,-0.000166806,0.068646331,-0.032188135
0.040283203,1.006347656,0.137573242,-0.003764049,0.070911262,-0.030189666
0.037353516,0.999511719,0.145507813,-0.006961599,0.065848475,-0.019930861
0.037475586,0.993286133,0.143798828,-0.007361293,0.066514631,-0.023261642
0.045654297,0.992675781,0.124511719,-0.009093299,0.073442656,-0.039382622
0.039306641,1.001586914,0.138916016,-0.009759455,0.073442656,-0.042047247
0.037841797,1.004882813,0.14465332,-0.008027449,0.0663814,-0.039116159
0.018676758,1.004272461,0.149169922,0.003430438,0.039468689,-0.019930861
0.02355957,1.002319336,0.151367188,0.008093531,0.01375506,-0.014201917
0.033569336,1.002319336,0.137573242,0.009825538,-0.003964695,-0.01553423
0.051147461,1.01574707,0.12890625,0.010758156,0.027877571,-0.01446838
0.048217773,1.018920898,0.123168945,0.014088937,0.038269608,-0.011936986
0.051269531,1.017211914,0.123168945,0.019951112,0.020016928,-0.008872668
0.050415039,1.022949219,0.126586914,0.015021556,0.009091966,-0.013535761
0.04309082,1.025512695,0.134521484,0.002231357,0.040134845,-0.027924735
0.036865234,1.020507813,0.145996094,0.001032276,0.055722901,-0.031122285
0.035400391,1.014282227,0.135009766,0.001165507,0.040934233,-0.032587829
0.043212891,1.016113281,0.13659668,-0.00709483,0.036937296,-0.035385685
0.041259766,1.007446289,0.14050293,-0.010825305,0.056122594,-0.047642959
0.030029297,1.005126953,0.140136719,0.004895982,0.061585075,-0.052972208
0.030273438,0.997314453,0.139892578,0.019684649,0.041067464,-0.050174352
0.028198242,0.997314453,0.153564453,0.035672398,-0.000500683,-0.026592423
0.028442383,0.989990234,0.155395508,0.016620331,0.003762717,-0.016200386
0.038574219,0.973999023,0.125610352,0.008359994,0.039068995,-0.021929329
0.030151367,0.987548828,0.128295898,0.009559075,0.107416622,-0.037384153
0.016601563,1.005371094,0.140258789,0.016353868,0.106350772,-0.033387216
0.015380859,1.004638672,0.125244141,0.030609611,0.05892045,-0.022195792
0.019042969,1.016357422,0.127807617,0.034873011,0.041333927,-0.016067155
0.020019531,1.016845703,0.136474609,0.037271173,0.02134924,-0.003410187
0.022827148,1.011352539,0.13293457,0.035938861,0.025479409,0.000719982
0.025756836,1.017333984,0.123535156,0.024214512,0.036804064,0.001386138
0.032104492,1.012329102,0.123535156,0.021683118,0.032807127,0.0016526
0.029785156,1.008422852,0.132202148,0.022748968,0.004562104,0.006582156
0.031616211,1.004516602,0.120361328,0.021150193,0.000298704,0.008180931
0.038574219,1.000732422,0.120483398,0.017020025,0.017885228,0.0080477
0.045776367,1.000854492,0.125854492,0.024214512,0.030808659,0.010845556
0.04309082,1.003540039,0.127075195,0.029010836,0.02241509,0.011778175
0.028808594,1.00012207,0.136230469,0.035405936,-0.004364389,0.0101794
0.032958984,1.003662109,0.138671875,0.031275767,-0.010493026,0.008314162
0.046264648,1.006347656,0.139892578,0.010491694,0.012289516,-0.001944643
0.041992188,1.003417969,0.130126953,0.002231357,0.03413944,-0.011936986
0.033691406,1.007324219,0.12109375,0.005695369,0.059186913,-0.025126879
0.022949219,1.025878906,0.124633789,0.012756625,0.049061339,-0.02739181
0.026489258,1.017944336,0.133056641,0.026479443,0.011889822,-0.023528104
0.032348633,1.015869141,0.124389648,0.040735185,3.2242E-05,-0.025126879
0.031005859,1.018066406,0.119018555,0.04659736,0.003629485,-0.031122285
0.029785156,1.021606445,0.117431641,0.05952079,0.003229792,-0.045511259
0.032714844,1.037597656,0.123535156,0.060186946,-0.009693639,-0.043646021
0.033935547,1.03894043,0.129638672,0.054324772,-0.015156119,-0.04138109
0.035522461,1.024658203,0.12487793,0.04233396,0.00629411,-0.042713403
0.033325195,1.016723633,0.120117188,0.04446566,0.014954141,-0.047110034
0.026000977,1.022460938,0.127929688,0.040468723,-0.00236592,-0.047909421
0.032836914,1.025024414,0.129760742,0.029010836,-0.00876102,-0.044711871
0.032958984,1.003417969,0.130126953,0.012889856,0.022015397,-0.042713403
0.037231445,0.995117188,0.12121582,0.007294144,0.039868383,-0.043379559
0.034790039,0.99609375,0.116943359,0.003830132,0.045730557,-0.052705746
0.019287109,0.999267578,0.12121582,0.007693838,0.013355366,-0.051906358
0.025512695,1.007080078,0.13269043,0.0079603,-0.004764083,-0.044312178
0.030273438,1.00402832,0.130004883,0.000499351,-0.003165308,-0.035518916
0.040527344,0.999755859,0.127319336,-0.017886561,0.064116469,-0.037517384
0.033569336,0.992553711,0.124267578,-0.023482273,0.090363023,-0.04031524
0.022094727,0.993408203,0.116943359,-0.011491461,0.059053682,-0.036185072
0.01953125,0.999145508,0.125854492,9.9657E-05,0.026145565,-0.030056435
0.021850586,1.001464844,0.125488281,0.019018493,0.004961798,-0.016866542
0.023925781,0.993164063,0.126708984,0.023814818,0.024680021,-0.013535761
0.018676758,0.997802734,0.118774414,0.018352337,0.055589669,-0.015667461
0.020141602,1.004394531,0.122680664,0.0143554,0.048928107,-0.018465317
0.027587891,1.014892578,0.133544922,0.0058286,0.017618766,-0.014601611
0.021728516,1.009887695,0.135375977,-0.008693605,0.029609577,-0.006341274
0.012939453,0.98828125,0.129272461,-0.012823773,0.042000083,-0.00807328
0.012817383,0.991699219,0.121948242,-0.011091767,0.044531476,-0.018865011
0.019775391,1.002441406,0.13293457,-0.004430205,0.041067464,-0.017932392
0.018676758,0.99987793,0.132446289,0.011690775,0.030142502,-0.01340253
0.012451172,1.007568359,0.129882813,0.019018493,0.018284922,-0.011137599
0.010253906,1.011962891,0.128540039,0.031941923,-0.009027482,-0.010071749
0.025878906,1.021240234,0.136352539,0.03473978,-0.010759489,-0.006874199
0.035400391,1.020385742,0.134155273,0.029277299,0.00309656,-0.012603142
0.038574219,1.015991211,0.120849609,0.014488631,0.040134845,-0.032454597
0.023925781,1.017700195,0.114135742,0.008359994,0.051725963,-0.045244796
0.011352539,1.02722168,0.116210938,0.012756625,0.029476346,-0.052972208
0.010253906,1.03527832,0.11706543,0.020750499,0.009358429,-0.045910953
0.014160156,1.029785156,0.118286133,0.02834468,0.002430404,-0.024727185
0.021728516,1.011352539,0.123901367,0.027012368,0.00842581,-0.018198855
0.024047852,1.003662109,0.122558594,0.009425844,0.03094189,-0.027924735
0.024291992,1.011108398,0.112182617,0.002631051,0.052925044,-0.034186603
0.01184082,1.008178711,0.111938477,0.002764282,0.056389057,-0.038050309
0.013305664,1.003051758,0.127929688,0.0079603,0.035072058,-0.03272106
0.014648438,0.983276367,0.134765625,0.017020025,0.000165473,-0.01766593
0.017333984,0.976806641,0.125732422,0.012090469,0.004428873,-0.014734842
0.018188477,0.986694336,0.125976563,-0.012557311,0.030675427,-0.013935455
0.022705078,0.989013672,0.135986328,-0.025480741,0.04173362,-0.014335149
0.0078125,0.988525391,0.131713867,-0.034407234,0.067047556,-0.019664398
-0.005493164,0.990844727,0.123046875,-0.030010603,0.072110343,-0.017799161
-0.007568359,1.000488281,0.12487793,-0.008960067,0.042399776,0.003517838
0.013427734,1.001831055,0.130737305,0.003030744,0.017885228,0.013510181
0.020141602,1.002563477,0.127441406,0.023415124,-0.002632383,0.022969599
0.023803711,1.009521484,0.122558594,0.025413593,0.005894417,0.020837899
0.02734375,1.020141602,0.124267578,0.017020025,0.02348094,0.012710793
0.033935547,1.013916016,0.134277344,0.007560606,0.022015397,0.005649538
0.030273438,1.006103516,0.133178711,-0.006428674,0.036137908,-0.009805286
0.008911133,1.0078125,0.117675781,-0.013623161,0.055456438,-0.013935455
0.006958008,1.010131836,0.135742188,-0.00496313,0.032274202,-0.002077874
0.006835938,1.013183594,0.129760742,0.001565201,0.017485534,-0.002477568
0.010375977,1.01550293,0.119506836,0.013822475,0.037470221,-0.004342806
0.018798828,1.026000977,0.139648438,0.017286487,0.055589669,-0.001145256
0.012084961,1.026611328,0.137207031,0.008226763,0.054923513,0.003384606
0.010498047,1.014648438,0.119995117,0.004229825,0.045197633,0.001119675
0.01940918,1.01171875,0.117919922,0.010358462,0.045597326,-0.003543418
0.032958984,1.013916016,0.11340332,0.026745905,0.031741277,-0.011803755
0.040039063,1.021728516,0.126586914,0.019817881,0.017352303,-0.023261642
0.026367188,1.014526367,0.132202148,0.007027681,0.025879103,-0.033653678
0.010498047,1.003540039,0.132080078,-0.010425611,0.054523819,-0.045511259
0.006225586,1.004638672,0.127807617,-0.008693605,0.05239212,-0.04564449
0.012329102,0.996826172,0.122314453,0.004629519,0.02348094,-0.035518916
0.020507813,0.993164063,0.116943359,0.010758156,0.020016928,-0.028990585
0.009765625,0.98046875,0.114257813,0.011690775,0.039735152,-0.025926266
-0.003540039,0.984985352,0.121582031,0.010491694,0.040401308,-0.023794567
0.000976563,0.997558594,0.142333984,0.008093531,0.009891354,-0.01446838
0.015136719,1.003662109,0.141845703,0.006494757,-0.003964695,-0.010338211
0.022338867,1.002807617,0.126708984,-0.005496055,0.01482091,-0.010471443
0.006835938,1.006591797,0.12487793,-0.013356698,0.043732089,-0.011137599
0,1.008422852,0.131469727,-0.016287786,0.066647862,-0.012203449
0,1.012451172,0.127197266,-0.00922653,0.051992426,-0.010071749
0.005615234,1.01184082,0.118164063,0.008892919,0.004828567,-0.001544949
0.010498047,1.023681641,0.127563477,0.0143554,-0.003964695,0.003651069
0.012695313,1.018066406,0.134033203,0.00902615,0.006427342,0.006049231
0.014648438,1.008056641,0.126464844,0.007160913,0.016686147,0.002185525
0.017700195,1.012084961,0.119262695,0.011557544,0.039868383,-0.008739436
0.022216797,1.015258789,0.120605469,0.010758156,0.042666239,-0.01660008
0.021850586,1.013916016,0.123168945,0.000232888,0.052925044,-0.023927798
-0.003662109,1.015869141,0.134155273,0.000632582,0.054390588,-0.013136067
0.006469727,1.011474609,0.151855469,0.010092,0.029343115,-0.001012025
0.012817383,1.007568359,0.137084961,0.021016962,0.011756591,-0.003276956
0.014770508,1.006103516,0.127929688,0.021150193,0.011756591,-0.004609268
0.018188477,0.99621582,0.124267578,0.016353868,0.020949547,-0.013136067
0.024902344,1.001098633,0.143798828,0.010491694,0.024813253,-0.012469911
0.030517578,1.001342773,0.135498047,9.9657E-05,0.028676959,-0.022062561
0.026611328,0.998535156,0.121582031,-0.002431737,0.037869914,-0.030855822
0.018554688,0.995483398,0.12890625,-0.004696668,0.060918919,-0.041647553
0.00012207,1.009033203,0.134155273,-0.007760986,0.050393651,-0.035652147
-0.006835938,1.008789063,0.13671875,-0.004430205,0.03307359,-0.027525041
-0.001342773,1.025878906,0.130004883,0.006228294,0.017751997,-0.014201917
0.001464844,1.024414063,0.124633789,0.00902615,0.026811721,-0.009272361
0.008911133,1.015136719,0.119750977,0.00476275,0.045597326,-0.002610799
0.012695313,1.018066406,0.115234375,-0.004030511,0.043065933,0.000853213
0.020629883,1.011352539,0.117431641,-0.025613972,0.034006208,0.00485015
0.01184082,1.003173828,0.120117188,-0.036272472,0.031075121,0.00698185
0.012573242,0.991821289,0.11340332,-0.057989164,0.035205289,-0.001544949
-0.000976563,1.000732422,0.135498047,-0.058921783,0.041866852,-0.005408655
-0.007202148,0.99621582,0.146972656,-0.034540466,0.05132627,0.001519369
-0.015991211,1.001586914,0.133544922,-0.018685948,0.05132627,0.001919063
-0.014038086,1.004760742,0.131835938,0.002364588,0.020416622,0.019105893
0.011108398,1.001831055,0.137207031,0.008226763,-0.015289351,0.019239124
0.018554688,1.005126953,0.131591797,0.0079603,-0.006096395,0.011511712
0.028564453,1.002929688,0.123046875,-0.003497587,0.050660113,-0.003676649
0.015136719,1.006469727,0.131225586,-0.00496313,0.048395182,-0.010071749
0.002075195,1.005126953,0.129150391,-0.000300037,0.022148628,-0.007540355
0.015258789,1.003051758,0.140380859,0.002764282,0.002030711,-0.008606205
0.020019531,0.998657227,0.145385742,0.005295675,0.015620297,-0.012736374
0.005737305,0.991210938,0.152587891,0.009958769,0.051725963,-0.021796098
0.000976563,0.999267578,0.146362305,0.010092,0.056921982,-0.015933923
-0.002685547,1.009521484,0.129150391,0.028078217,0.028144034,-0.002744031
0.002441406,1.012451172,0.126464844,0.031009305,0.004029179,-0.000345868
0.022949219,1.019042969,0.139038086,0.033940392,0.000964861,0.003651069
0.022338867,0.992553711,0.123535156,0.028744374,0.03094189,0.003118144
0.007324219,0.991333008,0.111328125,0.015021556,0.097157816,0.002984913
-0.013916016,1.024291992,0.119262695,-0.005496055,0.120606515,0.017240655
-0.004272461,1.004760742,0.147216797,-0.020417954,0.143655519,0.047617378
0.002319336,0.983886719,0.164672852,-0.009892686,0.149917388,0.051880778
-0.004394531,0.997436523,0.150146484,-0.022816116,0.147519225,0.051481084
0.005371094,1.012451172,0.133422852,-0.065849807,0.155646331,0.041755204
0.00793457,1.016601563,0.149536133,-0.083702793,0.188687679,0.028965005
0.008789063,0.998291016,0.129150391,-0.135130052,0.29727114,0.013909874
-0.000976563,0.994873047,0.15625,-0.142857464,0.335508506,0.007514775
-0.021728516,0.999145508,0.158325195,-0.191886561,0.289144034,-0.028057966
-0.000610352,1.034301758,0.151123047,-0.230257158,0.232520757,-0.00700743
0.006713867,1.037475586,0.121704102,-0.291943222,0.155246637,0.020438205
0.002563477,0.951416016,0.137817383,-0.284482273,0.171500849,0.037625035
-0.009643555,0.947265625,0.144775391,-0.214669103,0.196548322,0.076128864
-0.006469727,0.967651367,0.111328125,-0.206408766,0.194283391,0.064537746
-0.044311523,0.956542969,0.100219727,-0.211338322,0.289543728,-0.008606205
-0.068603516,0.938598633,0.116821289,-0.228391921,0.390133314,-0.066561795
-0.070556641,0.968017578,0.150390625,-0.259035106,0.526695336,-0.142103908
-0.071166992,0.998046875,0.201171875,-0.314459302,0.483794877,-0.101335149
-0.060668945,0.978393555,0.226196289,-0.332978445,0.427438062,-0.049774659
-0.033081055,0.973144531,0.241455078,-0.334843682,0.272090435,0.078793489
-0.001586914,0.985717773,0.225463867,-0.346568031,0.189087372,0.145942034
0.060668945,1.018066406,0.224487305,-0.40878702,0.106883697,0.244399921
0.073852539,0.970458984,0.271118164,-0.436365887,0.13832627,0.271978788
0.081787109,0.966430664,0.242919922,-0.444359762,0.260099624,0.256790426
0.108886719,0.986816406,0.197509766,-0.423575688,0.327514631,0.226014009
0.118652344,0.992431641,0.193725586,-0.329914126,0.442493192,0.235073734
0.146606445,1.020751953,0.214477539,-0.30353434,0.472070527,0.27437695
0.149902344,1.03112793,0.24206543,-0.293408766,0.53788676,0.365906812
0.129760742,1.068359375,0.299316406,-0.309529746,0.578255826,0.41506914
0.103271484,1.06640625,0.313598633,-0.327515964,0.578255826,0.489811866
0.032836914,1.040039063,0.314575195,-0.35722653,0.512306362,0.480885373
0.025024414,1.032836914,0.312133789,-0.415315351,0.377609578,0.397749079
0.055297852,1.000366211,0.326293945,-0.437431737,0.336441125,0.342857808
0.058105469,1.01159668,0.284179688,-0.398128521,0.315257357,0.237338665
0.061645508,1.020141602,0.26171875,-0.327915657,0.302733621,0.174853213
0.068237305,1.015380859,0.254394531,-0.113946285,0.221462564,0.052014009
0.077148438,1.041259766,0.272583008,-0.016687479,0.186955673,-0.002610799
0.079711914,1.065795898,0.27722168,0.093228294,0.150450313,-0.126515853
0.101806641,1.072509766,0.306640625,0.157445752,0.074375274,-0.242293801
0.111694336,1.048461914,0.305664063,0.166239014,0.045064401,-0.289724123
0.14050293,1.016601563,0.330932617,0.195150193,0.074242043,-0.312373434
0.115966797,0.999389648,0.263916016,0.207141005,0.091162411,-0.300649085
0.096069336,0.95690918,0.259155273,0.281084343,0.099289516,-0.293054904
0.051391602,0.950317383,0.222045898,0.323451878,0.098356898,-0.315704215
0.040039063,0.960083008,0.228393555,0.364353869,0.118608046,-0.403636834
0.030395508,0.974609375,0.2109375,0.361689244,0.134329332,-0.45373178
-0.001098633,1.006469727,0.219116211,0.25497102,0.202410496,-0.551390279
-0.016235352,1.028564453,0.19909668,0.090963363,0.307396714,-0.558051841
-0.05090332,1.019165039,0.186401367,-0.006295443,0.327914325,-0.511820601
-0.057861328,1.006225586,0.193847656,-0.159378138,0.301801002,-0.306111566
-0.06652832,1.005615234,0.21862793,-0.312727296,0.223594264,-0.153295333
-0.10546875,1.068237305,0.272949219,-0.51936895,0.21786532,-0.124117691
-0.097167969,1.111816406,0.214355469,-0.555074923,0.322451844,-0.092541887
-0.02331543,1.094726563,0.130249023,-0.60423725,0.491122595,-0.025659804
-0.074951172,1.027587891,0.174804688,-0.634480742,0.89441356,0.092249844
-0.04675293,0.877929688,0.314331055,-0.590381201,1.45824817,0.28730038
-0.067138672,0.771850586,0.290893555,-0.606102488,1.773739748,0.39894816
-0.095703125,0.819946289,0.342041016,-0.726676761,2.22179641,0.472491805
-0.139160156,0.885498047,0.425537109,-0.796889624,2.383672368,0.510995633
-0.15246582,0.901367188,0.385498047,-0.981414893,2.713019995,0.622510182
-0.126953125,0.893432617,0.373413086,-1.112914127,2.841188448,0.668075266
-0.118286133,0.907592773,0.386230469,-1.253473086,2.834526886,0.653819523
-0.097167969,0.881225586,0.363891602,-1.312094832,2.698497789,0.612517839
-0.020507813,0.794067383,0.454589844,-1.475702795,2.212736686,0.467429017
-0.007324219,0.800415039,0.509887695,-1.566966195,1.906704526,0.366572968
-0.034545898,0.902099609,0.454101563,-1.600940161,1.42920376,0.259721513
-0.09375,0.978271484,0.402587891,-1.593479212,1.285180789,0.247197777
-0.098022461,0.925537109,0.437011719,-1.728842152,1.15647941,0.281704668
-0.032958984,0.877319336,0.56237793,-1.779336793,1.23055598,0.298225342
-0.077026367,0.879882813,0.615112305,-1.656364358,1.45931402,0.292096705
-0.054199219,0.881103516,0.652099609,-1.569764051,1.402957206,0.283703137
-0.015136719,0.87097168,0.664794922,-1.377777833,1.021516164,0.209360104
0.044433594,0.874633789,0.692382813,-1.215502182,0.564000083,0.054678634
0.021362305,0.883300781,0.701293945,-1.123439395,0.494186913,-0.009405593
-0.056274414,0.944946289,0.620117188,-1.065217343,0.546680022,-0.034719528
-0.106689453,0.931762695,0.615356445,-1.00366451,0.835925046,0.010845556
-0.30480957,0.872070313,0.692871094,-0.953836026,1.006727496,0.243600533
-0.205078125,0.870483398,0.754882813,-0.912001416,1.030176194,0.381361636
-0.177368164,0.859130859,0.697998047,-0.837791615,0.830729027,0.461433612
-0.17199707,0.806884766,0.71484375,-0.777704326,0.620623361,0.463965005
-0.159301758,0.798950195,0.713989258,-0.71268748,0.208272671,0.468894561
-0.123291016,0.775146484,0.709228516,-0.710156087,0.155646331,0.483017073
-0.118530273,0.791992188,0.694946289,-0.817274004,0.480597327,0.543770518
-0.111694336,0.792114258,0.664306641,-0.903741079,0.749191508,0.578410641
-0.119873047,0.768066406,0.687133789,-1.084136179,1.050027649,0.631836368
-0.122314453,0.760375977,0.648193359,-1.254272473,0.997934234,0.639164087
-0.121582031,0.744628906,0.638305664,-1.3226201,0.918928108,0.631036981
-0.109130859,0.736816406,0.609985352,-1.506479212,0.810344647,0.625308038
-0.104614258,0.734008789,0.616699219,-1.60507033,0.769975581,0.624108956
-0.064086914,0.665405273,0.699462891,-1.774140774,0.75798477,0.625308038
-0.099365234,0.679443359,0.650634766,-1.861407237,0.737200696,0.621444332
-0.108520508,0.661254883,0.796020508,-1.862206624,0.572127189,0.600260564
-0.108520508,0.592285156,0.951049805,-1.693935567,0.331378337,0.609053826
-0.089111328,0.579101563,1.029418945,-1.552177527,0.253438062,0.621710794
0.009521484,0.637207031,1.102050781,-1.252274005,0.184024585,0.564554592
0.000610352,0.64855957,1.014526367,-1.17553281,0.206540665,0.532579094
-0.084838867,0.626708984,0.870605469,-1.215768645,0.373879103,0.544036981
-0.182739258,0.620483398,0.745605469,-1.306099426,0.485393652,0.610386139
-0.173950195,0.55859375,0.815673828,-1.490225,0.311127189,0.747880779
-0.043457031,0.437255859,0.901000977,-1.669953944,-0.193819213,0.766666384
-0.009521484,0.450195313,0.934936523,-1.70712546,-0.396730393,0.75547496
0.008666992,0.467163086,1.05847168,-1.574293913,-0.699165309,0.714972663
0.049072266,0.517944336,1.132568359,-1.15728013,-0.883157652,0.69432182
0.051269531,0.461914063,1.119628906,-0.987143836,-0.900344482,0.73402473
0.109619141,0.353027344,1.145874023,-0.884022856,-0.637346013,0.757473428
0.248657227,0.322998047,1.108520508,-0.883489931,-0.365021357,0.792513245
0.197631836,0.314697266,1.088134766,-0.81247768,0.391332396,0.816228405
0.131347656,0.261230469,1.07409668,-0.781568032,0.804615704,0.744017073
0.111694336,0.208618164,1.088745117,-0.696832963,1.430402841,0.734557655
0.047119141,0.170288086,1.173706055,-0.709090237,1.660892887,0.745615848
0.000366211,0.159667969,1.17980957,-0.89521428,1.984511571,0.755208497
-0.071533203,0.150756836,1.148071289,-1.012724234,2.092295645,0.704314163
-0.055541992,0.200683594,1.093017578,-1.137561907,2.216600392,0.616248313
-0.106323242,0.099853516,1.069580078,-1.130500651,2.107217543,0.59333254
-0.159301758,0.071777344,1.064941406,-0.976485337,1.405755062,0.745216154
-0.296508789,0.09362793,1.113525391,-0.813010604,0.37028186,0.8951013
-0.384521484,0.195922852,1.227172852,-0.893881968,-0.543284757,0.789448926
-0.244995117,0.228637695,1.156616211,-0.956234188,-1.074610945,0.736822586
-0.108886719,0.196655273,1.078369141,-0.965293912,-1.230225034,0.734291192
-0.068237305,0.187988281,1.055664063,-0.940779364,-1.442195938,0.783719983
-0.05065918,0.046264648,1.044067383,-0.848583346,-1.4488575,0.831816461
-0.014770508,0.000976563,1.125366211,-0.687640007,-1.216502216,0.854199309
-0.041625977,0.058349609,1.154052734,-0.697898813,-0.962163778,0.776791958
-0.083129883,0.118408203,1.110839844,-0.692569563,-0.356627789,0.589602065
-0.047485352,0.120117188,1.071777344,-0.651134647,-0.076842184,0.523785832
-0.017089844,0.074829102,1.085327148,-0.550944754,0.217732089,0.469693949
-0.094726563,-0.04309082,1.203491211,-0.491790083,0.211070527,0.440516307
-0.114013672,-0.047851563,1.267211914,-0.299670634,0.065049087,0.380029324
-0.151611328,0.062255859,1.364868164,-0.241848276,0.022948015,0.338461177
-0.139770508,0.115966797,1.356689453,-0.171235718,0.034938827,0.25612427
-0.040527344,0.1171875,1.174682617,-0.151117801,0.125935764,0.222949691
-0.000854492,0.071166992,1.107910156,-0.212137709,0.343102687,0.166859339
0.047729492,0.052001953,1.093994141,-0.263298506,0.397594264,0.149272815
0.05480957,-0.012817383,1.228881836,-0.307264815,0.318854601,0.21322381
-0.034423828,0.025512695,1.251708984,-0.31099529,0.103019991,0.394151835
-0.033935547,0.053222656,1.240478516,-0.283016729,-0.00130007,0.443847088
-0.056396484,0.045410156,1.159301758,-0.172834493,-0.09576102,0.461833305
-0.033813477,-0.031982422,0.999633789,-0.078906469,-0.048330698,0.415202371
-0.014160156,-0.04699707,1.153686523,-0.050661446,0.015353835,0.281304974
0.047363281,-0.048950195,1.37902832,-0.153782426,-0.219666074,0.241202371
0.060668945,0.002929688,1.206542969,-0.283016729,-0.818274038,0.07572917
0.101318359,-0.011108398,1.014038086,-0.266362824,-0.9140673,-0.169549544
0.067260742,-0.165283203,1.150390625,-0.201079516,-0.818140807,-0.189667461
0.16784668,-0.205322266,1.206665039,-0.089698199,-0.245512934,0.013643412
0.329467773,-0.128173828,1.246582031,0.109349274,0.669519226,0.063605127
0.244628906,-0.002929688,1.208618164,0.158511602,0.971287986,0.053346322
-0.070678711,0.026123047,1.038574219,0.147986334,0.851513101,0.041089048
-0.155273438,0.042724609,1.113891602,0.097891388,0.479265014,0.021370824
-0.144165039,0.013793945,1.150634766,-0.008560374,-0.264698233,-0.011404061
-0.058105469,0.017089844,1.092651367,-0.054258689,-0.442828402,0.009513244
-0.087280273,-0.023803711,1.13293457,-0.100090236,-0.444560408,0.034827179
-0.062011719,0.061889648,1.190917969,-0.08010555,-0.224329167,-0.020863479
-0.091186523,0.038330078,1.167724609,-0.036672165,-0.110549688,-0.043912484
0.025634766,0.033691406,1.134277344,-0.054525152,-0.012358263,-0.056702683
-0.009887695,-0.059936523,1.135009766,-0.091563437,-0.050195936,0.013243718
-0.009033203,-0.019165039,1.143554688,-0.070646132,-0.094561939,0.061073734
-0.03112793,-0.078979492,1.131347656,-0.03174261,-0.067915691,0.113833305
0.013671875,-0.001098633,1.141235352,-0.009892686,-0.025281694,0.120628098
0.046020508,0.02355957,1.145141602,-0.024015198,0.052791813,0.101709262
0.056396484,-0.133544922,1.14453125,-0.008560374,0.051059807,0.123559185
0.111572266,0.026977539,1.079833984,-0.000832962,-0.00343177,0.154202371
0.083740234,-0.024291992,1.168823242,0.039269642,-0.046065767,0.147940502
0.051757813,0.017944336,1.179443359,0.019951112,-0.092829933,0.076528558
0.090209961,-0.049926758,1.138183594,0.043799504,-0.120009106,0.034827179
0.12097168,0.104858398,1.157714844,0.005695369,-0.082038202,0.017107424
0.093017578,0.100952148,1.202270508,-0.012557311,-0.036606349,-0.02632596
0.099609375,0.148193359,1.087402344,-0.017486867,0.074908199,-0.036851228
0.084350586,0.148681641,1.146240234,-0.018685948,0.084500849,-0.074822132
0.032104492,0.046142578,1.199462891,0.099889856,-0.111748769,-0.121053372
0.085327148,0.229492188,1.125610352,0.058055247,-0.16237664,-0.142370371
0.083251953,0.104125977,1.148071289,0.077507008,-0.371949382,-0.101868074
0.017333984,0.294799805,1.128417969,0.040601954,-0.291078019,-0.077753219
-0.014648438,0.339355469,1.147460938,0.037937329,-0.196483838,-0.053238671
-0.076171875,0.305175781,1.229980469,0.05738909,-0.13333223,0.056010946
-0.061767578,0.248901367,1.327514648,0.056989397,-0.108018294,0.229611253
-0.096191406,0.193847656,1.273925781,0.069379902,-0.013690576,0.287033918
-0.096191406,0.215942383,1.152709961,0.085101188,0.093693804,0.290098236
-0.112426758,0.155029297,1.105224609,0.080704558,0.361888291,0.164061483
-0.150024414,0.103515625,0.989135742,0.101088937,0.4229082,0.098378481
-0.12902832,0.114379883,0.882446289,0.099490162,0.387735152,0.033628098
-0.096069336,0.00378418,0.71887207,0.069513133,0.274488598,0.015508649
-0.116455078,-0.083984375,0.729980469,0.002364588,-0.076575721,-0.026992116
-0.102783203,-0.273681641,0.890625,-0.027345979,-0.261367452,-0.066961489
0.01953125,-0.213500977,0.924804688,-0.183492993,-0.445093333,-0.163554138
0.200805664,-0.207885742,0.919311523,-0.228125458,-0.32345321,-0.224707277
0.224975586,-0.252563477,0.896728516,-0.187356699,-0.238451679,-0.242959957
0.270751953,-0.212036133,1.052490234,-0.110615504,-0.192220438,-0.270672055
0.271850586,-0.143188477,1.157470703,-0.155647663,-0.244846778,-0.179941581
0.37902832,0.258300781,1.999938965,-0.281284723,-0.929255661,0.32700329
0.289794922,0.10168457,1.999938965,-0.141525152,-1.097659949,0.483416766
0.364501953,-0.149536133,0.637451172,0.181560607,-0.055525185,0.508064546
0.362182617,-0.049926758,0.79675293,0.274156319,0.584917388,0.511395327
0.212768555,0.055541992,1.070678711,0.213136411,1.402157818,0.6213111
-0.124755859,0.151123047,1.417724609,0.279485569,1.619591203,0.586138053
-0.136474609,0.209594727,1.302856445,0.308396748,1.778003148,0.326470365
-0.098388672,0.210571289,1.065185547,0.282150193,1.631448783,0.211358573
-0.092041016,0.267700195,0.967773438,0.093761219,0.691502381,0.053879247
-0.053710938,0.225219727,0.5703125,-0.140326071,-0.615629321,-0.108796098
-0.070556641,0.03918457,0.854492188,-0.119408766,-0.669987667,-0.138240202
0.003051758,0.045776367,1.314331055,-0.250908,-1.204911098,-0.047243265
0.037109375,-0.037719727,1.342407227,-0.358159149,-1.477502216,-0.035785378
0.070922852,0.139526367,1.017333984,-0.364287786,-1.35652825,-0.063097783
0.415039063,0.188842773,1.233276367,-0.115811522,1.273323208,-0.06496302
0.170166016,0.077514648,1.112182617,-0.174832962,1.487026118,-0.123051841
-0.293701172,-0.001708984,1.999938965,0.10455295,-0.203944787,-0.00913913
-0.032836914,0.058349609,0.915893555,0.566998586,-0.079240346,-0.061232545
-0.045776367,0.124755859,0.740356445,0.521433501,-0.563535906,0.002984913
0.33203125,0.24230957,1.360717773,-0.026280129,0.090895948,0.048549997
-0.048095703,0.050292969,1.143432617,-0.030277066,0.218664708,0.044286597
0.064819336,-0.032104492,1.080810547,0.035805629,-0.003032077,0.075595939
0.081054688,0.100952148,1.165039063,0.025680055,-0.00449762,0.088119675
0.098022461,0.079467773,1.113525391,0.008226763,0.029076652,0.108637287
0.041503906,0.042114258,1.140625,0.000765813,0.046263482,0.123425954
0.05480957,0.046875,1.116577148,0.00476275,0.03307359,0.134484147
0.066650391,0.06628418,1.137207031,0.00689445,0.02987604,0.130220747
0.061279297,0.042724609,1.130371094,0.013822475,0.025212946,0.095314162
0.065917969,0.059936523,1.125732422,0.014088937,0.018684616,0.022836368
0.079833984,0.069824219,1.12109375,0.005695369,0.02774434,-0.012869605
0.059326172,0.059326172,1.129272461,-0.008027449,0.040934233,-0.042979865
0.049316406,0.051635742,1.124267578,-0.005762518,0.039868383,-0.026592423
0.053588867,0.047485352,1.134765625,-0.00069973,0.037736683,-0.018332086
0.041625977,0.02722168,1.138916016,0.013689244,0.018018459,-0.029257048
0.044799805,0.031860352,1.136352539,0.018352337,0.010024585,-0.047642959
0.050537109,0.045043945,1.126342773,0.006228294,0.024680021,-0.081217231
0.05065918,0.042602539,1.126342773,-0.003231124,0.042932701,-0.094407124
0.04309082,0.036743164,1.133666992,-0.00496313,0.040134845,-0.115857354
0.038696289,0.041870117,1.12512207,-0.010958536,0.046130251,-0.121453066
0.033447266,0.041259766,1.137207031,-0.018819179,0.058387525,-0.102667461
0.034667969,0.039550781,1.135375977,-0.006961599,0.042533008,-0.044445409
0.038085938,0.034790039,1.135986328,-0.002165274,0.036137908,-0.011404061
0.041259766,0.03125,1.13293457,0.006095063,0.03094189,0.029364698
0.041870117,0.041381836,1.129760742,0.003830132,0.035338521,0.020038512
0.041503906,0.04699707,1.132324219,0.000366119,0.036937296,0.007648006
0.043334961,0.034057617,1.129760742,-0.000966193,0.03853607,-0.006474505
0.043945313,0.033447266,1.138183594,0.002497819,0.034539133,-0.00700743
0.043579102,0.044067383,1.125732422,0.008226763,0.020683084,-0.003809881
0.03894043,0.050537109,1.133544922,0.005162444,0.023880634,0.004983381
0.035766602,0.043212891,1.133789063,0.004229825,0.025346178,0.03602626
0.048095703,0.03515625,1.133789063,0.010891387,0.019883697,0.052946628
0.04699707,0.033203125,1.134887695,0.019418187,0.012422747,0.066402983
0.046630859,0.030639648,1.138549805,0.022482505,0.006160879,0.059874652
0.037231445,0.034790039,1.133544922,0.02301543,0.005761185,0.023369293
0.041015625,0.047607422,1.133178711,0.024347743,-0.002898845,0.003917531
0.041748047,0.044677734,1.138549805,0.024347743,-0.015289351,-0.00487573
0.057128906,0.041015625,1.132446289,0.021416655,-0.00662932,-0.002211106
0.038818359,0.041992188,1.141601563,0.033141005,-0.014356732,0.0080477
0.046508789,0.015869141,1.149536133,0.05738909,-0.044866686,0.014043106
0.05871582,0.064575195,1.091064453,0.019951112,-0.002099458,-0.021529636
0.026000977,0.057006836,1.15625,0.004096594,0.05026042,-0.040048778
0.040283203,0.051391602,1.123657227,0.011557544,0.004562104,-0.044045715
0.041381836,0.032226563,1.138061523,0.005295675,0.030542196,-0.037783847
0.054199219,0.03137207,1.133178711,0.011424312,0.021482472,-0.020730248
0.043334961,0.0546875,1.133300781,0.008892919,0.02774434,-0.015933923
0.04309082,0.050292969,1.128295898,0.008226763,0.021748934,-0.004609268
0.045776367,0.033203125,1.137451172,0.008626456,0.024680021,0.000853213
0.048583984,0.034301758,1.127807617,0.009692306,0.022948015,0.000986444
0.047363281,0.049316406,1.130371094,0.009425844,0.022548322,-0.003676649
0.046386719,0.048217773,1.135498047,0.008626456,0.020816315,-0.00700743
0.047607422,0.039794922,1.132568359,0.010092,0.020283391,-0.008472974
0.047363281,0.036376953,1.134155273,0.010225231,0.019750466,-0.007940049
0.048828125,0.04699707,1.129516602,0.009692306,0.021216009,-0.006208043
0.046020508,0.046020508,1.132202148,0.008892919,0.020683084,-0.00594158
0.047607422,0.038696289,1.129638672,0.008759688,0.023747403,-0.006208043
0.04699707,0.043701172,1.131347656,0.008493225,0.024147097,-0.004342806
0.047363281,0.04675293,1.134643555,0.008493225,0.02561264,-0.004342806
0.048950195,0.039672852,1.130737305,0.008493225,0.02561264,-0.005541887
0.047729492,0.040405273,1.129882813,0.0079603,0.026012334,-0.007273893
0.046630859,0.041748047,1.129394531,0.008226763,0.022281859,-0.006607737
0.046142578,0.044799805,1.135498047,0.008759688,0.022548322,-0.006607737
0.047241211,0.043457031,1.129760742,0.007693838,0.025745871,-0.006474505
0.047241211,0.041503906,1.134765625,0.007693838,0.026012334,-0.005808349
0.050170898,0.040893555,1.128295898,0.008093531,0.025212946,-0.006208043
0.05090332,0.041137695,1.127075195,0.0079603,0.026412028,-0.006607737
0.043945313,0.04309082,1.144897461,0.010491694,0.020283391,-0.006607737
0.044677734,0.041992188,1.133422852,0.011957237,0.011889822,-0.005008962
0.04699707,0.039794922,1.137329102,0.007560606,0.02774434,-0.00700743
0.047729492,0.03894043,1.135009766,0.007294144,0.031208352,-0.008739436
0.046264648,0.04284668,1.130859375,0.010225231,0.021082778,-0.012070217
0.049438477,0.046875,1.131713867,0.007027681,0.027611109,-0.012603142
0.047119141,0.041625977,1.134155273,0.009825538,0.021748934,-0.009005899
0.048950195,0.040771484,1.129760742,0.007827069,0.023747403,-0.005142193
0.048828125,0.039794922,1.130126953,0.010092,0.021082778,-0.002610799
0.046630859,0.042602539,1.130737305,0.008493225,0.022281859,-0.001012025
0.045654297,0.040771484,1.1328125,0.00902615,0.023880634,-0.002744031
0.049194336,0.04309082,1.130737305,0.0079603,0.023747403,-0.005541887
0.047119141,0.04284668,1.132202148,0.009159381,0.022814784,-0.006874199
0.048461914,0.044433594,1.131591797,0.008359994,0.023880634,-0.006607737
0.048095703,0.041748047,1.131835938,0.009825538,0.023214478,-0.006607737
0.045654297,0.042480469,1.135009766,0.007560606,0.025212946,-0.007407124
0.043212891,0.041748047,1.13659668,0.009425844,0.023880634,-0.008606205
0.047363281,0.043579102,1.131591797,0.008493225,0.023347709,-0.009538824
0.046875,0.042480469,1.132446289,0.007427375,0.026012334,-0.010071749
0.04675293,0.043334961,1.135131836,0.008493225,0.022148628,-0.008739436
0.048828125,0.044921875,1.131347656,0.008093531,0.022948015,-0.00594158
0.048950195,0.040893555,1.134765625,0.008759688,0.02241509,-0.005808349
0.046020508,0.043212891,1.13269043,0.008093531,0.022681553,-0.00594158
0.04699707,0.042724609,1.12878418,0.008359994,0.023614172,-0.006074812
0.047363281,0.041870117,1.129882813,0.009159381,0.023747403,-0.00594158
0.048583984,0.041381836,1.128662109,0.009159381,0.023747403,-0.006341274
0.046142578,0.041748047,1.130249023,0.00902615,0.023614172,-0.006740968
0.047607422,0.042602539,1.127319336,0.008359994,0.022681553,-0.007140662
0.047607422,0.040649414,1.128662109,0.009159381,0.022814784,-0.006208043
0.047729492,0.043212891,1.13671875,0.009159381,0.024013865,-0.006208043
0.047119141,0.041748047,1.132568359,0.008093531,0.023347709,-0.006740968
0.048950195,0.04296875,1.131347656,0.008093531,0.023614172,-0.006208043
0.048339844,0.043212891,1.131347656,0.00902615,0.022948015,-0.006474505
0.047485352,0.041625977,1.130737305,0.007827069,0.022814784,-0.005808349
0.047729492,0.04284668,1.128173828,0.009159381,0.02348094,-0.007407124
0.046508789,0.041503906,1.12890625,0.008626456,0.024013865,-0.006607737
0.045166016,0.04284668,1.131225586,0.008359994,0.022814784,-0.007273893
0.045898438,0.042114258,1.129516602,0.00902615,0.024013865,-0.007140662
0.046508789,0.043823242,1.133789063,0.009292613,0.023347709,-0.007140662
0.045654297,0.045166016,1.129272461,0.009159381,0.022281859,-0.007140662
